velx,vely,velz,accx,accy,accz
0.000000,0.000000,0.000000,0.000000,0.000000,0.000000
0.117038,0.381935,-0.093621,0.874776,0.852656,-0.699753
0.280316,0.594000,-0.224231,0.665732,1.410710,-0.532535
0.361448,0.765921,-0.289130,0.659630,1.397780,-0.527653
0.423591,0.897604,-0.338840,0.606945,1.286138,-0.485509
0.474427,1.005327,-0.379505,0.589279,1.248702,-0.471377
0.518643,1.099022,-0.414874,0.564059,1.195260,-0.451203
0.558725,1.183958,-0.446937,0.573069,1.214353,-0.458411
0.595960,1.262860,-0.476722,0.559093,1.184738,-0.447231
0.629398,1.333717,-0.503470,0.519849,1.101579,-0.415839
0.661504,1.401750,-0.529152,0.574237,1.216829,-0.459345
0.691720,1.465778,-0.553322,0.502465,1.064741,-0.401933
0.723477,1.533073,-0.578726,0.686872,1.455507,-0.549445
0.752704,1.595006,-0.602105,0.446329,0.945788,-0.357029
0.775512,1.643337,-0.620350,0.473788,1.003973,-0.378994
0.799010,1.693131,-0.639147,0.502935,1.065737,-0.402309
0.819085,1.735670,-0.655205,0.352408,0.746765,-0.281899
0.831371,1.761705,-0.665033,0.181548,0.384706,-0.145224
0.827276,1.753027,-0.661757,-0.359491,-0.761775,0.287565
0.807001,1.710063,-0.645538,-0.513044,-1.087159,0.410396
0.783267,1.659770,-0.626553,-0.483311,-1.024153,0.386611
0.760231,1.610956,-0.608126,-0.455301,-0.964798,0.364205
0.737873,1.563578,-0.590241,-0.428914,-0.908884,0.343098
0.712680,1.510193,-0.570089,-0.533377,-1.130244,0.426660
0.684871,1.451266,-0.547844,-0.492564,-1.043762,0.394014
0.654254,1.386387,-0.523353,-0.586461,-1.242731,0.469123
0.619207,1.312122,-0.495318,-0.589837,-1.249885,0.471824
0.581160,1.231499,-0.464883,-0.612612,-1.298146,0.490042
0.539773,1.143797,-0.431776,-0.608861,-1.290198,0.487042
0.496015,1.051074,-0.396774,-0.584339,-1.238236,0.467427
0.447103,0.947427,-0.357648,-0.624607,-1.323564,0.499637
0.390155,0.826753,-0.312094,-0.622283,-1.318639,0.497778
0.319293,0.676593,-0.255410,-0.671241,-1.422384,0.536941
0.196703,0.416821,-0.157348,-0.704206,-1.492237,0.563311
0.000000,0.000000,0.000000,-0.693170,-1.468852,0.554483
0.000000,0.000000,0.000000,1.492252,0.000000,0.000000
0.477431,0.003757,0.194562,1.497142,0.011780,0.610115
0.771875,0.006073,0.314554,1.400170,0.011017,0.570597
0.948962,0.007467,0.386720,1.454278,0.011443,0.592647
1.091927,0.008592,0.444982,1.295415,0.010193,0.527907
1.208233,0.009507,0.492379,1.246635,0.009809,0.508028
1.314592,0.010344,0.535722,1.312536,0.010328,0.534884
1.408933,0.011086,0.574168,1.131806,0.008906,0.461233
1.503312,0.011829,0.612629,1.502623,0.011823,0.612348
1.595322,0.012553,0.650125,1.209663,0.009518,0.492961
1.668193,0.013126,0.679821,1.058471,0.008328,0.431348
1.744780,0.013729,0.711032,1.446935,0.011385,0.589655
1.815266,0.014283,0.739757,0.940218,0.007398,0.383157
1.870270,0.014716,0.762172,0.998061,0.007853,0.406729
1.926941,0.015162,0.785266,1.059462,0.008336,0.431751
1.975355,0.015543,0.804996,0.742367,0.005841,0.302529
2.015059,0.015855,0.821176,0.772510,0.006078,0.314813
2.055562,0.016174,0.837682,0.803877,0.006325,0.327596
2.096879,0.016499,0.854519,0.836518,0.006582,0.340897
2.139026,0.016831,0.871695,0.870484,0.006849,0.354739
2.182020,0.017169,0.889216,0.905829,0.007127,0.369143
2.225879,0.017514,0.907089,0.942609,0.007417,0.384132
2.282085,0.017956,0.929995,1.485976,0.011692,0.605565
2.327725,0.018316,0.948593,0.515472,0.004056,0.210065
2.351002,0.018499,0.958079,0.525833,0.004137,0.214287
2.374512,0.018684,0.967660,0.536402,0.004221,0.218594
2.398257,0.018870,0.977337,0.547184,0.004305,0.222988
2.422240,0.019059,0.987110,0.558182,0.004392,0.227470
2.446462,0.019250,0.996981,0.569401,0.004480,0.232042
2.470927,0.019442,1.006951,0.580846,0.004570,0.236706
2.495636,0.019637,1.017021,0.592521,0.004662,0.241464
2.483343,0.019540,1.012011,-1.173281,-0.009232,-0.478135
2.446462,0.019250,0.996981,-0.569401,-0.004480,-0.232042
2.422240,0.019059,0.987110,-0.558182,-0.004392,-0.227470
2.398257,0.018870,0.977337,-0.547184,-0.004305,-0.222988
2.374512,0.018684,0.967660,-0.536402,-0.004221,-0.218594
2.351002,0.018499,0.958079,-0.525833,-0.004137,-0.214287
2.327725,0.018316,0.948593,-0.515472,-0.004056,-0.210065
2.304678,0.018134,0.939201,-0.505315,-0.003976,-0.205926
2.270619,0.017866,0.925322,-0.980883,-0.007718,-0.399729
2.225879,0.017514,0.907089,-0.942609,-0.007417,-0.384132
2.182020,0.017169,0.889216,-0.905829,-0.007127,-0.369143
2.139026,0.016831,0.871695,-0.870484,-0.006849,-0.354739
2.096879,0.016499,0.854519,-0.836518,-0.006582,-0.340897
2.055562,0.016174,0.837682,-0.803877,-0.006325,-0.327596
2.015059,0.015855,0.821176,-0.772510,-0.006078,-0.314813
1.956087,0.015391,0.797144,-1.455335,-0.011451,-0.593078
1.888973,0.014863,0.769794,-1.018122,-0.008011,-0.414905
1.833419,0.014426,0.747154,-0.959117,-0.007547,-0.390859
1.779498,0.014002,0.725180,-0.903531,-0.007109,-0.368207
1.718741,0.013524,0.700421,-1.123588,-0.008841,-0.457884
1.651676,0.012996,0.673090,-1.037615,-0.008164,-0.422849
1.579527,0.012428,0.643688,-1.185828,-0.009331,-0.483248
1.502866,0.011825,0.612447,-1.073515,-0.008447,-0.437478
1.423022,0.011197,0.579910,-1.154555,-0.009085,-0.470504
1.334113,0.010497,0.543677,-1.183415,-0.009312,-0.482265
1.223227,0.009625,0.498489,-1.503215,-0.011828,-0.612590
1.087128,0.008554,0.443026,-1.483187,-0.011670,-0.604428
0.939442,0.007392,0.382841,-1.356882,-0.010677,-0.552956
0.768816,0.006049,0.313308,-1.369697,-0.010777,-0.558178
0.475682,0.003743,0.193850,-1.491355,-0.011735,-0.607757
0.000000,0.000000,0.000000,-1.468790,-0.011557,-0.598561
0.000000,0.000000,0.000000,-1.455702,0.000000,0.000000
-0.453028,-0.159873,-0.095124,-1.488250,-0.525202,-0.312493
-0.734589,-0.259236,-0.154244,-1.394355,-0.492067,-0.292777
-0.905993,-0.319724,-0.190234,-1.502062,-0.530076,-0.315393
-1.044979,-0.368772,-0.219418,-1.299486,-0.458588,-0.272857
-1.164784,-0.411051,-0.244574,-1.473023,-0.519829,-0.309295
-1.269363,-0.447957,-0.266532,-1.176377,-0.415143,-0.247008
-1.353957,-0.477810,-0.284295,-1.147689,-0.405019,-0.240984
-1.429925,-0.504619,-0.300246,-1.067130,-0.376589,-0.224069
-1.502866,-0.530360,-0.315562,-1.178776,-0.415989,-0.247511
-1.571513,-0.554586,-0.329976,-1.031444,-0.363996,-0.216576
-1.635323,-0.577104,-0.343374,-1.116906,-0.394155,-0.234520
-1.693131,-0.597505,-0.355512,-0.898158,-0.316959,-0.188589
-1.744435,-0.615610,-0.366285,-0.953413,-0.336459,-0.200191
-1.797293,-0.634263,-0.377383,-1.012067,-0.357158,-0.212507
-1.851753,-0.653482,-0.388819,-1.074329,-0.379130,-0.225580
-1.898277,-0.669900,-0.398587,-0.752785,-0.265657,-0.158065
-1.936432,-0.683365,-0.406599,-0.783351,-0.276444,-0.164483
-1.975355,-0.697101,-0.414772,-0.815158,-0.287669,-0.171161
-2.015059,-0.711113,-0.423109,-0.848257,-0.299349,-0.178111
-2.055562,-0.725406,-0.431613,-0.882700,-0.311504,-0.185343
-2.096879,-0.739987,-0.440288,-0.918541,-0.324152,-0.192869
-2.139026,-0.754861,-0.449138,-0.955837,-0.337314,-0.200700
-2.171111,-0.766183,-0.455875,-0.492412,-0.173772,-0.103393
-2.192822,-0.773845,-0.460434,-0.502310,-0.177265,-0.105472
-2.214750,-0.781584,-0.465038,-0.512406,-0.180828,-0.107592
-2.236898,-0.789399,-0.469689,-0.522706,-0.184462,-0.109754
-2.259267,-0.797293,-0.474386,-0.533212,-0.188170,-0.111960
-2.281859,-0.805266,-0.479129,-0.543929,-0.191952,-0.114211
-2.304678,-0.813319,-0.483921,-0.554862,-0.195811,-0.116506
-2.327725,-0.821452,-0.488760,-0.566015,-0.199746,-0.118848
-2.351002,-0.829667,-0.493648,-0.577392,-0.203761,-0.121237
-2.374512,-0.837963,-0.498584,-0.588998,-0.207857,-0.123674
-2.398257,-0.846343,-0.503570,-0.600837,-0.212035,-0.126160
-2.422240,-0.854806,-0.508606,-0.612913,-0.216297,-0.128695
-2.446462,-0.863354,-0.513692,-0.625233,-0.220644,-0.131282
-2.470927,-0.871988,-0.518829,-0.637800,-0.225079,-0.133921
-2.495636,-0.880708,-0.524017,-0.650620,-0.229603,-0.136613
-2.520592,-0.889515,-0.529257,-0.663697,-0.234218,-0.139359
-2.545798,-0.898410,-0.534550,-0.677038,-0.238926,-0.142160
-2.571256,-0.907394,-0.539895,-0.690646,-0.243728,-0.145017
-2.571256,-0.907394,-0.539895,0.690646,0.243728,0.145017
-2.545798,-0.898410,-0.534550,0.677038,0.238926,0.142160
-2.520592,-0.889515,-0.529257,0.663697,0.234218,0.139359
-2.495636,-0.880708,-0.524017,0.650620,0.229603,0.136613
-2.470927,-0.871988,-0.518829,0.637800,0.225079,0.133921
-2.446462,-0.863354,-0.513692,0.625233,0.220644,0.131282
-2.422240,-0.854806,-0.508606,0.612913,0.216297,0.128695
-2.398257,-0.846343,-0.503570,0.600837,0.212035,0.126160
-2.374512,-0.837963,-0.498584,0.588998,0.207857,0.123674
-2.351002,-0.829667,-0.493648,0.577392,0.203761,0.121237
-2.327725,-0.821452,-0.488760,0.566015,0.199746,0.118848
-2.304678,-0.813319,-0.483921,0.554862,0.195811,0.116506
-2.281859,-0.805266,-0.479129,0.543929,0.191952,0.114211
-2.259267,-0.797293,-0.474386,0.533212,0.188170,0.111960
-2.236898,-0.789399,-0.469689,0.522706,0.184462,0.109754
-2.214750,-0.781584,-0.465038,0.512406,0.180828,0.107592
-2.192822,-0.773845,-0.460434,0.502310,0.177265,0.105472
-2.160416,-0.762409,-0.453630,0.975050,0.344094,0.204734
-2.117847,-0.747387,-0.444691,0.937004,0.330668,0.196746
-2.076117,-0.732660,-0.435929,0.900442,0.317765,0.189069
-2.035210,-0.718224,-0.427340,0.865307,0.305366,0.181691
-1.995108,-0.704072,-0.418919,0.831543,0.293451,0.174602
-1.955797,-0.690199,-0.410665,0.799097,0.282001,0.167789
-1.917260,-0.676599,-0.402573,0.767916,0.270997,0.161242
-1.870270,-0.660017,-0.392707,1.095923,0.386751,0.230115
-1.815266,-0.640606,-0.381157,1.032409,0.364336,0.216778
-1.761879,-0.621766,-0.369948,0.972576,0.343221,0.204215
-1.710063,-0.603480,-0.359067,0.916211,0.323330,0.192380
-1.651676,-0.582875,-0.346808,1.139356,0.402078,0.239234
-1.587228,-0.560132,-0.333275,1.052176,0.371312,0.220929
-1.517894,-0.535664,-0.318717,1.202469,0.424350,0.252486
-1.430350,-0.504769,-0.300335,1.493687,0.527121,0.313634
-1.340551,-0.473079,-0.281480,1.125075,0.397038,0.236236
-1.250790,-0.441403,-0.262632,1.304730,0.460438,0.273958
-1.149592,-0.405690,-0.241384,1.239222,0.437320,0.260203
-1.039445,-0.366819,-0.218256,1.277260,0.450744,0.268191
-0.909629,-0.321007,-0.190998,1.349878,0.476371,0.283438
-0.739509,-0.260972,-0.155277,1.509880,0.532836,0.317035
-0.454109,-0.160255,-0.095351,1.477853,0.521533,0.310310
0.000000,0.000000,0.000000,1.504994,0.531111,0.316008
0.000000,0.000000,0.000000,0.704300,0.000000,0.000000
0.194256,0.413399,-0.156644,0.682896,1.453275,-0.550673
0.314719,0.669756,-0.253783,0.678924,1.444823,-0.547470
0.386182,0.821837,-0.311409,0.617473,1.314050,-0.497918
0.443472,0.943756,-0.357606,0.636454,1.354442,-0.513223
0.497405,1.058532,-0.401097,0.709279,1.509423,-0.571948
0.544320,1.158372,-0.438928,0.579989,1.234278,-0.467691
0.581726,1.237977,-0.469092,0.537037,1.142873,-0.433055
0.614366,1.307437,-0.495412,0.499341,1.062652,-0.402658
0.643605,1.369661,-0.518990,0.477967,1.017166,-0.385423
0.673099,1.432428,-0.542773,0.556270,1.183803,-0.448565
0.707364,1.505347,-0.570403,0.704673,1.499620,-0.568234
0.738847,1.572347,-0.595791,0.501418,1.067072,-0.404333
0.763786,1.625419,-0.615901,0.495211,1.053862,-0.399328
0.787727,1.676368,-0.635206,0.492805,1.048741,-0.397387
0.807518,1.718485,-0.651165,0.345309,0.734855,-0.278450
0.803560,1.710063,-0.647974,-0.512814,-1.091324,0.413523
0.779928,1.659770,-0.628917,-0.483094,-1.028077,0.389557
0.756990,1.610956,-0.610421,-0.455097,-0.968495,0.366980
0.734727,1.563578,-0.592468,-0.428722,-0.912366,0.345712
0.709641,1.510193,-0.572240,-0.533138,-1.134575,0.429911
0.681951,1.451266,-0.549911,-0.492344,-1.047761,0.397016
0.653149,1.389972,-0.526686,-0.529269,-1.126342,0.426792
0.617393,1.313880,-0.497853,-0.673671,-1.433644,0.543234
0.592076,1.260002,-0.477438,-0.151070,-0.321494,0.121820
0.567525,1.207755,-0.457640,-0.596070,-1.268502,0.480659
0.526326,1.120078,-0.424418,-0.599709,-1.276245,0.483592
0.480221,1.021961,-0.387240,-0.628705,-1.337952,0.506974
0.428371,0.911621,-0.345430,-0.617386,-1.313864,0.497847
0.394770,0.840114,-0.318335,-0.134731,-0.286721,0.108644
0.373261,0.794339,-0.300989,-0.299425,-0.637209,0.241450
0.316090,0.672675,-0.254889,-0.695322,-1.479721,0.560693
0.193787,0.412400,-0.156266,-0.685686,-1.459213,0.552923
0.000000,0.000000,0.000000,-0.686367,-1.460663,0.553472
0.000000,0.000000,0.000000,1.492286,0.000000,0.000000
0.493825,0.003893,0.160216,1.496493,0.011797,0.485520
0.803040,0.006330,0.260537,1.472436,0.011607,0.477715
0.992644,0.007825,0.322052,1.500542,0.011829,0.486834
1.139452,0.008982,0.369682,1.250158,0.009855,0.405600
1.257292,0.009911,0.407914,1.261404,0.009944,0.409248
1.360929,0.010728,0.441538,1.150711,0.009071,0.373335
1.451625,0.011443,0.470963,1.122649,0.008850,0.364231
1.540929,0.012147,0.499937,1.265029,0.009972,0.410424
1.627388,0.012829,0.527988,1.176234,0.009272,0.381616
1.701723,0.013415,0.552105,1.029220,0.008113,0.333919
1.770820,0.013959,0.574522,1.114498,0.008786,0.361586
1.833419,0.014453,0.594832,0.896221,0.007065,0.290769
1.888973,0.014891,0.612856,0.951357,0.007500,0.308657
1.946211,0.015342,0.631426,1.009885,0.007961,0.327646
2.005183,0.015807,0.650559,1.072013,0.008451,0.347802
2.055562,0.016204,0.666904,0.751162,0.005921,0.243706
2.096879,0.016530,0.680308,0.781662,0.006162,0.253601
2.139026,0.016862,0.693983,0.813401,0.006412,0.263899
2.182020,0.017201,0.707932,0.846428,0.006672,0.274614
2.225879,0.017547,0.722161,0.880796,0.006943,0.285764
2.270619,0.017899,0.736677,0.916560,0.007225,0.297368
2.327955,0.018351,0.755279,1.444911,0.011390,0.468785
2.374512,0.018718,0.770383,0.501227,0.003951,0.162617
2.398257,0.018906,0.778087,0.511301,0.004031,0.165886
2.422240,0.019095,0.785868,0.521578,0.004112,0.169220
2.446462,0.019286,0.793727,0.532062,0.004194,0.172622
2.470927,0.019478,0.801664,0.542757,0.004279,0.176091
2.495636,0.019673,0.809681,0.553666,0.004365,0.179631
2.520592,0.019870,0.817777,0.564795,0.004452,0.183241
2.520592,0.019870,0.817777,-0.564795,-0.004452,-0.183241
2.495636,0.019673,0.809681,-0.553666,-0.004365,-0.179631
2.470927,0.019478,0.801664,-0.542757,-0.004279,-0.176091
2.446462,0.019286,0.793727,-0.532062,-0.004194,-0.172622
2.422240,0.019095,0.785868,-0.521578,-0.004112,-0.169220
2.374747,0.018720,0.770460,-1.503581,-0.011853,-0.487820
2.316259,0.018259,0.751484,-0.953776,-0.007519,-0.309442
2.270619,0.017899,0.736677,-0.916560,-0.007225,-0.297368
2.225879,0.017547,0.722161,-0.880796,-0.006943,-0.285764
2.182020,0.017201,0.707932,-0.846428,-0.006672,-0.274614
2.139026,0.016862,0.693983,-0.813401,-0.006412,-0.263899
2.096879,0.016530,0.680308,-0.781662,-0.006162,-0.253601
2.035512,0.016046,0.660399,-1.472576,-0.011608,-0.477761
1.965673,0.015495,0.637740,-1.030183,-0.008121,-0.334231
1.907863,0.015040,0.618984,-0.970479,-0.007650,-0.314861
1.851753,0.014597,0.600780,-0.914235,-0.007207,-0.296613
1.788528,0.014099,0.580268,-1.136899,-0.008962,-0.368854
1.718741,0.013549,0.557626,-1.049908,-0.008276,-0.340631
1.643662,0.012957,0.533267,-1.199876,-0.009459,-0.389286
1.548864,0.012210,0.502511,-1.490466,-0.011749,-0.483565
1.444653,0.011388,0.468701,-1.296650,-0.010222,-0.420683
1.341016,0.010571,0.435077,-1.276264,-0.010061,-0.414069
1.232519,0.009716,0.399877,-1.212185,-0.009556,-0.393279
1.111111,0.008759,0.360487,-1.310790,-0.010333,-0.425271
0.967425,0.007626,0.313870,-1.329907,-0.010484,-0.431473
0.789621,0.006225,0.256184,-1.393357,-0.010984,-0.452059
0.487897,0.003846,0.158293,-1.456416,-0.011481,-0.472518
0.000000,0.000000,0.000000,-1.467198,-0.011566,-0.476016
0.000000,0.000000,0.000000,-1.440923,0.000000,0.000000
-0.465163,-0.164163,-0.065318,-1.497525,-0.528499,-0.210281
-0.757671,-0.267393,-0.106391,-1.429201,-0.504387,-0.200687
-0.933976,-0.329614,-0.131148,-1.483126,-0.523417,-0.208259
-1.078045,-0.380458,-0.151378,-1.368729,-0.483045,-0.192196
-1.196491,-0.422260,-0.168010,-1.299838,-0.458732,-0.182522
-1.308976,-0.461958,-0.183805,-1.509179,-0.532612,-0.211918
-1.408933,-0.497234,-0.197841,-1.180650,-0.416669,-0.165786
-1.487986,-0.525133,-0.208942,-1.097778,-0.387422,-0.154149
-1.563888,-0.551920,-0.219600,-1.212629,-0.427955,-0.170276
-1.635323,-0.577130,-0.229631,-1.061067,-0.374467,-0.148994
-1.710401,-0.603627,-0.240173,-1.450484,-0.511898,-0.203676
-1.779498,-0.628012,-0.249876,-0.942524,-0.332631,-0.132348
-1.833419,-0.647041,-0.257447,-1.000508,-0.353094,-0.140491
-1.888973,-0.666647,-0.265248,-1.062060,-0.374817,-0.149134
-1.936432,-0.683396,-0.271912,-0.744188,-0.262635,-0.104498
-1.975355,-0.697133,-0.277378,-0.774405,-0.273299,-0.108741
-2.015059,-0.711145,-0.282953,-0.805848,-0.284396,-0.113157
-2.055562,-0.725439,-0.288640,-0.838569,-0.295944,-0.117751
-2.096879,-0.740020,-0.294442,-0.872618,-0.307960,-0.122532
-2.139026,-0.754895,-0.300360,-0.908050,-0.320465,-0.127508
-2.182020,-0.770068,-0.306397,-0.944921,-0.333477,-0.132685
-2.225879,-0.785546,-0.312556,-0.983288,-0.347017,-0.138073
-2.259267,-0.797329,-0.317244,-0.506554,-0.178771,-0.071130
-2.281859,-0.805303,-0.320417,-0.516736,-0.182364,-0.072560
-2.304678,-0.813356,-0.323621,-0.527122,-0.186029,-0.074018
-2.327725,-0.821489,-0.326857,-0.537717,-0.189769,-0.075506
-2.351002,-0.829704,-0.330126,-0.548525,-0.193583,-0.077023
-2.374512,-0.838001,-0.333427,-0.559551,-0.197474,-0.078572
-2.398257,-0.846381,-0.336761,-0.570798,-0.201443,-0.080151
-2.422240,-0.854845,-0.340129,-0.582271,-0.205492,-0.081762
-2.446462,-0.863394,-0.343530,-0.593974,-0.209623,-0.083405
-2.470927,-0.872027,-0.346965,-0.605913,-0.213836,-0.085082
-2.495636,-0.880748,-0.350435,-0.618092,-0.218134,-0.086792
-2.520592,-0.889555,-0.353939,-0.630516,-0.222519,-0.088536
-2.545798,-0.898451,-0.357479,-0.643189,-0.226991,-0.090316
-2.571256,-0.907435,-0.361054,-0.656117,-0.231554,-0.092131
-2.596969,-0.916510,-0.364664,-0.669305,-0.236208,-0.093983
-2.622938,-0.925675,-0.368311,-0.682758,-0.240956,-0.095872
-2.610018,-0.921115,-0.366497,1.351963,0.477128,0.189842
-2.571256,-0.907435,-0.361054,0.656117,0.231554,0.092131
-2.545798,-0.898451,-0.357479,0.643189,0.226991,0.090316
-2.520592,-0.889555,-0.353939,0.630516,0.222519,0.088536
-2.495636,-0.880748,-0.350435,0.618092,0.218134,0.086792
-2.470927,-0.872027,-0.346965,0.605913,0.213836,0.085082
-2.446462,-0.863394,-0.343530,0.593974,0.209623,0.083405
-2.422240,-0.854845,-0.340129,0.582271,0.205492,0.081762
-2.398257,-0.846381,-0.336761,0.570798,0.201443,0.080151
-2.374512,-0.838001,-0.333427,0.559551,0.197474,0.078572
-2.351002,-0.829704,-0.330126,0.548525,0.193583,0.077023
-2.327725,-0.821489,-0.326857,0.537717,0.189769,0.075506
-2.304678,-0.813356,-0.323621,0.527122,0.186029,0.074018
-2.281859,-0.805303,-0.320417,0.516736,0.182364,0.072560
-2.259267,-0.797329,-0.317244,0.506554,0.178771,0.071130
-2.225879,-0.785546,-0.312556,0.983288,0.347017,0.138073
-2.182020,-0.770068,-0.306397,0.944921,0.333477,0.132685
-2.139026,-0.754895,-0.300360,0.908050,0.320465,0.127508
-2.096879,-0.740020,-0.294442,0.872618,0.307960,0.122532
-2.055562,-0.725439,-0.288640,0.838569,0.295944,0.117751
-2.015059,-0.711145,-0.282953,0.805848,0.284396,0.113157
-1.975355,-0.697133,-0.277378,0.774405,0.273299,0.108741
-1.926941,-0.680047,-0.270579,1.105183,0.390036,0.155189
-1.870270,-0.660047,-0.262622,1.041133,0.367432,0.146195
-1.815266,-0.640635,-0.254898,0.980794,0.346137,0.137722
-1.761879,-0.621794,-0.247402,0.923953,0.326077,0.129741
-1.701723,-0.600564,-0.238955,1.148983,0.405494,0.161339
-1.635323,-0.577130,-0.229631,1.061067,0.374467,0.148994
-1.563888,-0.551920,-0.219600,1.212629,0.427955,0.170276
-1.473691,-0.520088,-0.206934,1.506308,0.531599,0.211514
-1.381171,-0.487436,-0.193943,1.134581,0.400411,0.159317
-1.288690,-0.454798,-0.180957,1.315754,0.464350,0.184757
-1.184426,-0.418002,-0.166316,1.249692,0.441035,0.175481
-1.071063,-0.377995,-0.150398,1.285606,0.453710,0.180524
-0.929033,-0.327870,-0.130454,1.501774,0.529999,0.210878
-0.752134,-0.265439,-0.105614,1.405918,0.496170,0.197418
-0.465213,-0.164181,-0.065325,1.476853,0.521204,0.207378
0.000000,0.000000,0.000000,1.492426,0.526700,0.209565
0.000000,0.000000,0.000000,0.704248,0.000000,0.000000
0.194241,0.413413,-0.156642,0.682824,1.453289,-0.550650
0.314691,0.669773,-0.253776,0.678828,1.444784,-0.547427
0.386146,0.821855,-0.311400,0.617399,1.314043,-0.497889
0.443431,0.943777,-0.357596,0.636386,1.354453,-0.513201
0.497356,1.058549,-0.401083,0.709096,1.509205,-0.571836
0.544261,1.158378,-0.438908,0.579825,1.234071,-0.467588
0.581660,1.237977,-0.469068,0.536949,1.142816,-0.433012
0.614296,1.307437,-0.495387,0.499260,1.062600,-0.402618
0.643536,1.369670,-0.518966,0.478033,1.017423,-0.385500
0.673026,1.432437,-0.542749,0.556035,1.183438,-0.448403
0.707288,1.505357,-0.570378,0.704739,1.499932,-0.568323
0.738773,1.572368,-0.595768,0.501352,1.067053,-0.404305
0.763704,1.625430,-0.615874,0.494933,1.053391,-0.399129
0.787637,1.676368,-0.635174,0.492724,1.048690,-0.397347
0.807426,1.718485,-0.651132,0.345253,0.734819,-0.278422
0.803468,1.710063,-0.647941,-0.512731,-1.091271,0.413481
0.779838,1.659770,-0.628885,-0.483015,-1.028026,0.389518
0.756903,1.610956,-0.610390,-0.455022,-0.968447,0.366944
0.734643,1.563578,-0.592438,-0.428652,-0.912321,0.345678
0.709560,1.510193,-0.572211,-0.533051,-1.134519,0.429868
0.681873,1.451266,-0.549883,-0.492263,-1.047709,0.396976
0.653080,1.389983,-0.526663,-0.529002,-1.125902,0.426603
0.617333,1.313901,-0.497836,-0.673590,-1.433636,0.543203
0.592013,1.260012,-0.477417,-0.151197,-0.321800,0.121930
0.567460,1.207755,-0.457617,-0.595973,-1.268440,0.480611
0.526268,1.120082,-0.424398,-0.599556,-1.276065,0.483500
0.480171,1.021973,-0.387224,-0.628579,-1.337836,0.506905
0.428331,0.911638,-0.345419,-0.617262,-1.313750,0.497778
0.394736,0.840137,-0.318327,-0.134687,-0.286662,0.108616
0.373226,0.794356,-0.300981,-0.299458,-0.637352,0.241492
0.316061,0.672688,-0.254881,-0.695193,-1.479616,0.560625
0.193771,0.412414,-0.156263,-0.685614,-1.459227,0.552900
0.000000,0.000000,0.000000,-0.686316,-1.460722,0.553466
0.000000,0.000000,0.000000,1.503752,0.000000,0.000000
0.511133,0.004012,0.123367,1.483557,0.011645,0.358070
0.827129,0.006492,0.199635,1.428971,0.011216,0.344895
1.015495,0.007971,0.245099,1.385362,0.010874,0.334370
1.173976,0.009215,0.283350,1.472790,0.011560,0.355472
1.308343,0.010270,0.315781,1.270063,0.009969,0.306541
1.416188,0.011116,0.341810,1.158610,0.009094,0.279641
1.510567,0.011857,0.364589,1.130355,0.008872,0.272822
1.595322,0.012522,0.385046,1.051013,0.008250,0.253672
1.676700,0.013161,0.404687,1.160972,0.009113,0.280211
1.753287,0.013762,0.423172,1.015866,0.007974,0.245189
1.824478,0.014321,0.440355,1.100038,0.008635,0.265504
1.888973,0.014827,0.455921,0.884593,0.006943,0.213505
1.946211,0.015276,0.469736,0.939013,0.007371,0.226640
2.005183,0.015739,0.483969,0.996781,0.007824,0.240582
2.065942,0.016216,0.498634,1.058104,0.008305,0.255383
2.117847,0.016624,0.511162,0.741416,0.005820,0.178948
2.160416,0.016958,0.521436,0.771520,0.006056,0.186214
2.203841,0.017299,0.531917,0.802847,0.006302,0.193775
2.248138,0.017646,0.542609,0.835446,0.006558,0.201643
2.293325,0.018001,0.553515,0.869368,0.006824,0.209830
2.339421,0.018363,0.564641,0.904668,0.007101,0.218350
2.386444,0.018732,0.575990,0.941401,0.007389,0.227216
2.446704,0.019205,0.590535,1.484072,0.011649,0.358194
2.495636,0.019589,0.602345,0.514811,0.004041,0.124254
2.520592,0.019785,0.608368,0.525159,0.004122,0.126752
2.545798,0.019983,0.614452,0.535714,0.004205,0.129300
2.545798,0.019983,0.614452,-0.535714,-0.004205,-0.129300
2.520592,0.019785,0.608368,-0.525159,-0.004122,-0.126752
2.495636,0.019589,0.602345,-0.514811,-0.004041,-0.124254
2.446704,0.019205,0.590535,-1.484072,-0.011649,-0.358194
2.386444,0.018732,0.575990,-0.941401,-0.007389,-0.227216
2.339421,0.018363,0.564641,-0.904668,-0.007101,-0.218350
2.293325,0.018001,0.553515,-0.869368,-0.006824,-0.209830
2.248138,0.017646,0.542609,-0.835446,-0.006558,-0.201643
2.203841,0.017299,0.531917,-0.802847,-0.006302,-0.193775
2.160416,0.016958,0.521436,-0.771520,-0.006056,-0.186214
2.117847,0.016624,0.511162,-0.741416,-0.005820,-0.178948
2.065942,0.016216,0.498634,-1.058104,-0.008305,-0.255383
2.005183,0.015739,0.483969,-0.996781,-0.007824,-0.240582
1.946211,0.015276,0.469736,-0.939013,-0.007371,-0.226640
1.888973,0.014827,0.455921,-0.884593,-0.006943,-0.213505
1.824478,0.014321,0.440355,-1.100038,-0.008635,-0.265504
1.753287,0.013762,0.423172,-1.015866,-0.007974,-0.245189
1.676700,0.013161,0.404687,-1.160972,-0.009113,-0.280211
1.595322,0.012522,0.385046,-1.051013,-0.008250,-0.253672
1.510567,0.011857,0.364589,-1.130355,-0.008872,-0.272822
1.416188,0.011116,0.341810,-1.158610,-0.009094,-0.279641
1.308343,0.010270,0.315781,-1.270063,-0.009969,-0.306541
1.173976,0.009215,0.283350,-1.472790,-0.011560,-0.355472
1.020159,0.008008,0.246225,-1.314224,-0.010316,-0.317200
0.832950,0.006538,0.201040,-1.485475,-0.011660,-0.358533
0.512290,0.004021,0.123646,-1.493123,-0.011720,-0.360379
0.000000,0.000000,0.000000,-1.503752,-0.011803,-0.362944
0.000000,0.000000,0.000000,-1.486164,0.000000,0.000000
-0.477530,-0.168521,-0.033833,-1.504719,-0.531018,-0.106608
-0.771096,-0.272121,-0.054632,-1.375780,-0.485516,-0.097473
-0.941013,-0.332086,-0.066670,-1.350381,-0.476552,-0.095674
-1.081055,-0.381507,-0.076592,-1.334625,-0.470992,-0.094557
-1.200243,-0.423568,-0.085036,-1.251318,-0.441593,-0.088655
-1.304060,-0.460205,-0.092392,-1.229916,-0.434040,-0.087139
-1.394983,-0.492292,-0.098834,-1.111705,-0.392323,-0.078764
-1.480803,-0.522578,-0.104914,-1.252697,-0.442079,-0.088753
-1.563888,-0.551899,-0.110800,-1.164768,-0.411049,-0.082523
-1.635323,-0.577109,-0.115862,-1.019187,-0.359673,-0.072209
-1.701723,-0.600542,-0.120566,-1.103634,-0.389474,-0.078192
-1.761879,-0.621771,-0.124828,-0.887485,-0.313195,-0.062878
-1.815266,-0.640611,-0.128610,-0.942083,-0.332463,-0.066746
-1.870270,-0.660022,-0.132507,-1.000040,-0.352916,-0.070852
-1.926941,-0.680021,-0.136523,-1.061562,-0.374628,-0.075211
-1.975355,-0.697107,-0.139953,-0.743839,-0.262502,-0.052701
-2.015059,-0.711118,-0.142766,-0.774042,-0.273161,-0.054840
-2.055562,-0.725412,-0.145635,-0.805471,-0.284252,-0.057067
-2.096879,-0.739993,-0.148562,-0.838177,-0.295794,-0.059384
-2.139026,-0.754866,-0.151549,-0.872210,-0.307805,-0.061796
-2.182020,-0.770039,-0.154595,-0.907625,-0.320303,-0.064305
-2.225879,-0.785517,-0.157702,-0.944478,-0.333308,-0.066916
-2.270619,-0.801306,-0.160872,-0.982828,-0.346842,-0.069633
-2.304678,-0.813325,-0.163285,-0.506317,-0.178680,-0.035872
-2.327725,-0.821459,-0.164918,-0.516494,-0.182272,-0.036593
-2.351002,-0.829673,-0.166567,-0.526875,-0.185935,-0.037329
-2.374512,-0.837970,-0.168233,-0.537466,-0.189673,-0.038079
-2.398257,-0.846350,-0.169915,-0.548269,-0.193485,-0.038844
-2.422240,-0.854813,-0.171614,-0.559289,-0.197374,-0.039625
-2.446462,-0.863361,-0.173330,-0.570531,-0.201341,-0.040422
-2.470927,-0.871995,-0.175064,-0.581998,-0.205388,-0.041234
-2.495636,-0.880715,-0.176814,-0.593696,-0.209517,-0.042063
-2.520592,-0.889522,-0.178582,-0.605630,-0.213728,-0.042908
-2.545798,-0.898417,-0.180368,-0.617803,-0.218024,-0.043771
-2.571256,-0.907401,-0.182172,-0.630221,-0.222406,-0.044651
-2.596969,-0.916475,-0.183994,-0.642888,-0.226876,-0.045548
-2.596969,-0.916475,-0.183994,0.642888,0.226876,0.045548
-2.571256,-0.907401,-0.182172,0.630221,0.222406,0.044651
-2.545798,-0.898417,-0.180368,0.617803,0.218024,0.043771
-2.520592,-0.889522,-0.178582,0.605630,0.213728,0.042908
-2.495636,-0.880715,-0.176814,0.593696,0.209517,0.042063
-2.470927,-0.871995,-0.175064,0.581998,0.205388,0.041234
-2.446462,-0.863361,-0.173330,0.570531,0.201341,0.040422
-2.422240,-0.854813,-0.171614,0.559289,0.197374,0.039625
-2.398257,-0.846350,-0.169915,0.548269,0.193485,0.038844
-2.374512,-0.837970,-0.168233,0.537466,0.189673,0.038079
-2.351002,-0.829673,-0.166567,0.526875,0.185935,0.037329
-2.327725,-0.821459,-0.164918,0.516494,0.182272,0.036593
-2.304678,-0.813325,-0.163285,0.506317,0.178680,0.035872
-2.270619,-0.801306,-0.160872,0.982828,0.346842,0.069633
-2.225879,-0.785517,-0.157702,0.944478,0.333308,0.066916
-2.182020,-0.770039,-0.154595,0.907625,0.320303,0.064305
-2.139026,-0.754866,-0.151549,0.872210,0.307805,0.061796
-2.096879,-0.739993,-0.148562,0.838177,0.295794,0.059384
-2.055562,-0.725412,-0.145635,0.805471,0.284252,0.057067
-2.015059,-0.711118,-0.142766,0.774042,0.273161,0.054840
-1.975355,-0.697107,-0.139953,0.743839,0.262502,0.052701
-1.926941,-0.680021,-0.136523,1.061562,0.374628,0.075211
-1.870270,-0.660022,-0.132507,1.000040,0.352916,0.070852
-1.815266,-0.640611,-0.128610,0.942083,0.332463,0.066746
-1.761879,-0.621771,-0.124828,0.887485,0.313195,0.062878
-1.701723,-0.600542,-0.120566,1.103634,0.389474,0.078192
-1.635323,-0.577109,-0.115862,1.019187,0.359673,0.072209
-1.563888,-0.551899,-0.110800,1.164768,0.411049,0.082523
-1.487986,-0.525113,-0.105423,1.054449,0.372117,0.074707
-1.408933,-0.497215,-0.099822,1.134050,0.400209,0.080347
-1.308343,-0.461717,-0.092695,1.464677,0.516887,0.103771
-1.196271,-0.422166,-0.084755,1.224495,0.432127,0.086755
-1.078352,-0.380553,-0.076401,1.325664,0.467830,0.093922
-0.939144,-0.331426,-0.066538,1.337786,0.472107,0.094781
-0.768695,-0.271274,-0.054462,1.386699,0.489369,0.098247
-0.474857,-0.167578,-0.033643,1.489200,0.525542,0.105509
0.000000,0.000000,0.000000,1.466458,0.517516,0.103898
0.000000,0.000000,0.000000,0.704187,0.000000,0.000000
0.194224,0.413410,-0.156655,0.682769,1.453286,-0.550698
0.314664,0.669769,-0.253798,0.678778,1.444792,-0.547480
0.386114,0.821851,-0.311427,0.617352,1.314044,-0.497935
0.443394,0.943772,-0.357627,0.636335,1.354450,-0.513246
0.497315,1.058545,-0.401118,0.709062,1.509253,-0.571906
0.544217,1.158377,-0.438948,0.579800,1.234116,-0.467648
0.581614,1.237977,-0.469111,0.536913,1.142829,-0.433056
0.614247,1.307437,-0.495432,0.499226,1.062611,-0.402659
0.643484,1.369668,-0.519013,0.477969,1.017367,-0.385514
0.672973,1.432435,-0.542797,0.556028,1.183517,-0.448474
0.707231,1.505354,-0.570429,0.704652,1.499864,-0.568349
0.738712,1.572363,-0.595821,0.501314,1.067057,-0.404343
0.763642,1.625427,-0.615929,0.494942,1.053493,-0.399204
0.787575,1.676368,-0.635232,0.492690,1.048701,-0.397388
0.807362,1.718485,-0.651191,0.345229,0.734827,-0.278451
0.803405,1.710063,-0.648000,-0.512696,-1.091282,0.413523
0.779777,1.659770,-0.628942,-0.482983,-1.028037,0.389558
0.756844,1.610956,-0.610445,-0.454991,-0.968458,0.366981
0.734585,1.563578,-0.592492,-0.428622,-0.912331,0.345713
0.709504,1.510193,-0.572263,-0.533014,-1.134531,0.429912
0.681820,1.451266,-0.549933,-0.492230,-1.047721,0.397016
0.653027,1.389981,-0.526710,-0.529005,-1.125998,0.426678
0.617282,1.313896,-0.497879,-0.673538,-1.433638,0.543253
0.591966,1.260010,-0.477460,-0.151154,-0.321733,0.121915
0.567416,1.207755,-0.457659,-0.595932,-1.268453,0.480659
0.526226,1.120081,-0.424436,-0.599527,-1.276104,0.483558
0.480132,1.021970,-0.387259,-0.628541,-1.337861,0.506960
0.428295,0.911634,-0.345449,-0.617225,-1.313775,0.497833
0.394703,0.840132,-0.318354,-0.134683,-0.286675,0.108631
0.373195,0.794352,-0.301007,-0.299420,-0.637321,0.241502
0.316034,0.672685,-0.254903,-0.695149,-1.479639,0.560684
0.193755,0.412411,-0.156276,-0.685559,-1.459224,0.552949
0.000000,0.000000,0.000000,-0.686256,-1.460709,0.553511
0.000000,0.000000,0.000000,1.465827,0.000000,0.000000
0.468948,0.004012,0.208405,1.472472,0.012599,0.654379
0.762394,0.006523,0.338815,1.442651,0.012343,0.641126
0.933533,0.007987,0.414870,1.308757,0.011198,0.581623
1.068656,0.009144,0.474920,1.302159,0.011141,0.578691
1.186988,0.010156,0.527508,1.282960,0.010977,0.570158
1.291265,0.011048,0.573849,1.223420,0.010468,0.543698
1.381171,0.011817,0.613804,1.108364,0.009483,0.492567
1.466141,0.012544,0.651566,1.248932,0.010686,0.555036
1.548404,0.013248,0.688124,1.161267,0.009936,0.516077
1.619131,0.013853,0.719556,1.016124,0.008694,0.451574
1.684875,0.014416,0.748773,1.100317,0.009414,0.488990
1.744435,0.014926,0.775242,0.884818,0.007571,0.393221
1.797293,0.015378,0.798733,0.939252,0.008036,0.417412
1.851753,0.015844,0.822935,0.997035,0.008531,0.443091
1.907863,0.016324,0.847871,1.058372,0.009056,0.470350
1.955797,0.016734,0.869173,0.741604,0.006345,0.329575
1.995108,0.017070,0.886643,0.771716,0.006603,0.342957
2.035210,0.017413,0.904465,0.803051,0.006871,0.356883
2.076117,0.017764,0.922645,0.835658,0.007150,0.371374
2.117847,0.018121,0.941190,0.869589,0.007440,0.386453
2.160416,0.018485,0.960108,0.904898,0.007742,0.402144
2.203841,0.018856,0.979406,0.941640,0.008057,0.418473
2.259490,0.019332,1.004137,1.484449,0.012701,0.659702
2.304678,0.019719,1.024219,0.514942,0.004406,0.228845
2.327725,0.019916,1.034461,0.525292,0.004494,0.233444
2.351002,0.020115,1.044806,0.535850,0.004585,0.238137
2.374512,0.020317,1.055254,0.546621,0.004677,0.242923
2.398257,0.020520,1.065806,0.557608,0.004771,0.247806
2.386444,0.020419,1.060556,-1.104147,-0.009447,-0.490692
2.351002,0.020115,1.044806,-0.535850,-0.004585,-0.238137
2.327725,0.019916,1.034461,-0.525292,-0.004494,-0.233444
2.304678,0.019719,1.024219,-0.514942,-0.004406,-0.228845
2.281859,0.019524,1.014078,-0.504795,-0.004319,-0.224335
2.248138,0.019235,0.999092,-0.979874,-0.008384,-0.435465
2.203841,0.018856,0.979406,-0.941640,-0.008057,-0.418473
2.160416,0.018485,0.960108,-0.904898,-0.007742,-0.402144
2.117847,0.018121,0.941190,-0.869589,-0.007440,-0.386453
2.076117,0.017764,0.922645,-0.835658,-0.007150,-0.371374
2.035210,0.017413,0.904465,-0.803051,-0.006871,-0.356883
1.995108,0.017070,0.886643,-0.771716,-0.006603,-0.342957
1.955797,0.016734,0.869173,-0.741604,-0.006345,-0.329575
1.907863,0.016324,0.847871,-1.058372,-0.009056,-0.470350
1.851753,0.015844,0.822935,-0.997035,-0.008531,-0.443091
1.797293,0.015378,0.798733,-0.939252,-0.008036,-0.417412
1.744435,0.014926,0.775242,-0.884818,-0.007571,-0.393221
1.684875,0.014416,0.748773,-1.100317,-0.009414,-0.488990
1.619131,0.013853,0.719556,-1.016124,-0.008694,-0.451574
1.548404,0.013248,0.688124,-1.161267,-0.009936,-0.516077
1.473253,0.012605,0.654726,-1.051280,-0.008995,-0.467198
1.394983,0.011936,0.619943,-1.130642,-0.009674,-0.502467
1.307826,0.011190,0.581209,-1.158904,-0.009916,-0.515027
1.208464,0.010340,0.537052,-1.265236,-0.010826,-0.562282
1.084626,0.009280,0.482017,-1.473432,-0.012607,-0.654806
0.939709,0.008040,0.417615,-1.363106,-0.011663,-0.605776
0.765930,0.006553,0.340386,-1.451054,-0.012415,-0.644861
0.469633,0.004018,0.208709,-1.487510,-0.012727,-0.661062
0.000000,0.000000,0.000000,-1.443870,-0.012354,-0.641668
0.000000,0.000000,0.000000,-1.454517,0.000000,0.000000
-0.449126,-0.170350,-0.101346,-1.496013,-0.567427,-0.337577
-0.732769,-0.277934,-0.165350,-1.467167,-0.556486,-0.331068
-0.898047,-0.340622,-0.202645,-1.345003,-0.510150,-0.303502
-1.028606,-0.390143,-0.232106,-1.324525,-0.502382,-0.298881
-1.139276,-0.432119,-0.257079,-1.228618,-0.466006,-0.277239
-1.238673,-0.469820,-0.279508,-1.299107,-0.492742,-0.293145
-1.327279,-0.503427,-0.299502,-1.126084,-0.427115,-0.254102
-1.408933,-0.534398,-0.317928,-1.268899,-0.481284,-0.286329
-1.487986,-0.564382,-0.335766,-1.179833,-0.447502,-0.266231
-1.555953,-0.590162,-0.351103,-1.032369,-0.391570,-0.232955
-1.619131,-0.614125,-0.365359,-1.117908,-0.424014,-0.252257
-1.676368,-0.635834,-0.378275,-0.898963,-0.340970,-0.202852
-1.727163,-0.655100,-0.389737,-0.954268,-0.361947,-0.215332
-1.779498,-0.674950,-0.401546,-1.012974,-0.384214,-0.228579
-1.833419,-0.695402,-0.413713,-1.075293,-0.407851,-0.242641
-1.879482,-0.712874,-0.424108,-0.753460,-0.285782,-0.170019
-1.917260,-0.727202,-0.432632,-0.784054,-0.297386,-0.176923
-1.955797,-0.741819,-0.441328,-0.815889,-0.309461,-0.184106
-1.995108,-0.756730,-0.450199,-0.849018,-0.322026,-0.191582
-2.035210,-0.771940,-0.459248,-0.883491,-0.335102,-0.199361
-2.076117,-0.787456,-0.468479,-0.919365,-0.348708,-0.207456
-2.117847,-0.803284,-0.477895,-0.956694,-0.362867,-0.215879
-2.149615,-0.815333,-0.485063,-0.492854,-0.186936,-0.111213
-2.171111,-0.823486,-0.489914,-0.502760,-0.190693,-0.113448
-2.192822,-0.831721,-0.494813,-0.512866,-0.194526,-0.115729
-2.214750,-0.840038,-0.499761,-0.523174,-0.198436,-0.118055
-2.236898,-0.848439,-0.504759,-0.533690,-0.202425,-0.120428
-2.259267,-0.856923,-0.509806,-0.544417,-0.206493,-0.122848
-2.281859,-0.865492,-0.514905,-0.555360,-0.210644,-0.125318
-2.304678,-0.874147,-0.520054,-0.566523,-0.214878,-0.127837
-2.327725,-0.882889,-0.525254,-0.577910,-0.219197,-0.130406
-2.351002,-0.891718,-0.530507,-0.589526,-0.223603,-0.133027
-2.374512,-0.900635,-0.535812,-0.601375,-0.228097,-0.135701
-2.398257,-0.909641,-0.541170,-0.613463,-0.232682,-0.138429
-2.422240,-0.918738,-0.546582,-0.625794,-0.237359,-0.141211
-2.446462,-0.927925,-0.552047,-0.638372,-0.242130,-0.144049
-2.470927,-0.937204,-0.557568,-0.651203,-0.246997,-0.146945
-2.508176,-0.951333,-0.565973,-1.341838,-0.508949,-0.302787
-2.520592,-0.956042,-0.568775,0.677645,0.257026,0.152911
-2.495636,-0.946576,-0.563143,0.664292,0.251961,0.149898
-2.470927,-0.937204,-0.557568,0.651203,0.246997,0.146945
-2.446462,-0.927925,-0.552047,0.638372,0.242130,0.144049
-2.422240,-0.918738,-0.546582,0.625794,0.237359,0.141211
-2.398257,-0.909641,-0.541170,0.613463,0.232682,0.138429
-2.374512,-0.900635,-0.535812,0.601375,0.228097,0.135701
-2.351002,-0.891718,-0.530507,0.589526,0.223603,0.133027
-2.327725,-0.882889,-0.525254,0.577910,0.219197,0.130406
-2.304678,-0.874147,-0.520054,0.566523,0.214878,0.127837
-2.281859,-0.865492,-0.514905,0.555360,0.210644,0.125318
-2.259267,-0.856923,-0.509806,0.544417,0.206493,0.122848
-2.236898,-0.848439,-0.504759,0.533690,0.202425,0.120428
-2.214750,-0.840038,-0.499761,0.523174,0.198436,0.118055
-2.171326,-0.823568,-0.489962,1.508181,0.572042,0.340323
-2.117847,-0.803284,-0.477895,0.956694,0.362867,0.215879
-2.076117,-0.787456,-0.468479,0.919365,0.348708,0.207456
-2.035210,-0.771940,-0.459248,0.883491,0.335102,0.199361
-1.995108,-0.756730,-0.450199,0.849018,0.322026,0.191582
-1.955797,-0.741819,-0.441328,0.815889,0.309461,0.184106
-1.917260,-0.727202,-0.432632,0.784054,0.297386,0.176923
-1.879482,-0.712874,-0.424108,0.753460,0.285782,0.170019
-1.833419,-0.695402,-0.413713,1.075293,0.407851,0.242641
-1.779498,-0.674950,-0.401546,1.012974,0.384214,0.228579
-1.727163,-0.655100,-0.389737,0.954268,0.361947,0.215332
-1.676368,-0.635834,-0.378275,0.898963,0.340970,0.202852
-1.619131,-0.614125,-0.365359,1.117908,0.424014,0.252257
-1.555953,-0.590162,-0.351103,1.032369,0.391570,0.232955
-1.487986,-0.564382,-0.335766,1.179833,0.447502,0.266231
-1.415767,-0.536990,-0.319470,1.068087,0.405118,0.241015
-1.340551,-0.508461,-0.302497,1.148718,0.435700,0.259210
-1.252354,-0.475009,-0.282595,1.292005,0.490048,0.291543
-1.144325,-0.434034,-0.258218,1.463980,0.555277,0.330349
-1.026495,-0.389342,-0.231630,1.272176,0.482527,0.287068
-0.895862,-0.339794,-0.202152,1.385972,0.525689,0.312746
-0.731130,-0.277312,-0.164981,1.420606,0.538825,0.320562
-0.450767,-0.170973,-0.101716,1.502053,0.569718,0.338940
0.000000,0.000000,0.000000,1.477221,0.560299,0.333337
0.000000,0.000000,0.000000,0.704304,0.000000,0.000000
0.194255,0.413421,-0.156649,0.682864,1.453297,-0.550668
0.314712,0.669783,-0.253787,0.678852,1.444760,-0.547433
0.386172,0.821866,-0.311413,0.617430,1.314038,-0.497902
0.443461,0.943790,-0.357611,0.636423,1.354460,-0.513218
0.497388,1.058559,-0.401099,0.709069,1.509069,-0.571801
0.544291,1.158381,-0.438922,0.579794,1.233941,-0.467552
0.581691,1.237977,-0.469081,0.536961,1.142781,-0.433011
0.614328,1.307437,-0.495401,0.499271,1.062567,-0.402617
0.643572,1.369675,-0.518983,0.478135,1.017585,-0.385573
0.673065,1.432442,-0.542766,0.555956,1.183208,-0.448329
0.707328,1.505363,-0.570397,0.704868,1.500128,-0.568413
0.738818,1.572381,-0.595790,0.501373,1.067041,-0.404312
0.763747,1.625436,-0.615894,0.494819,1.053094,-0.399027
0.787678,1.676368,-0.635192,0.492735,1.048657,-0.397346
0.807468,1.718485,-0.651151,0.345260,0.734797,-0.278422
0.803511,1.710063,-0.647959,-0.512742,-1.091237,0.413480
0.779880,1.659770,-0.628903,-0.483026,-1.027995,0.389517
0.756943,1.610956,-0.610407,-0.455032,-0.968417,0.366943
0.734682,1.563578,-0.592455,-0.428661,-0.912293,0.345677
0.709598,1.510193,-0.572227,-0.533062,-1.134484,0.429867
0.681909,1.451266,-0.549899,-0.492274,-1.047677,0.396975
0.653118,1.389990,-0.526681,-0.528900,-1.125626,0.426511
0.617372,1.313914,-0.497855,-0.673623,-1.433632,0.543217
0.592047,1.260018,-0.477433,-0.151295,-0.321992,0.122006
0.567490,1.207755,-0.457630,-0.595986,-1.268401,0.480609
0.526297,1.120085,-0.424411,-0.599534,-1.275952,0.483471
0.480200,1.021980,-0.387238,-0.628578,-1.337763,0.506892
0.428358,0.911649,-0.345433,-0.617261,-1.313678,0.497765
0.394764,0.840151,-0.318342,-0.134677,-0.286624,0.108605
0.373251,0.794367,-0.300993,-0.299516,-0.637442,0.241533
0.316081,0.672696,-0.254891,-0.695199,-1.479550,0.560616
0.193786,0.412422,-0.156271,-0.685654,-1.459236,0.552919
0.000000,0.000000,0.000000,-0.686370,-1.460759,0.553496
0.000000,0.000000,0.000000,1.465325,0.000000,0.000000
0.488798,0.004192,0.172949,1.493936,0.012812,0.528593
0.794097,0.006810,0.280972,1.428031,0.012247,0.505274
0.977021,0.008379,0.345695,1.442421,0.012370,0.510365
1.125212,0.009650,0.398129,1.343806,0.011525,0.475473
1.245947,0.010686,0.440848,1.230304,0.010551,0.435313
1.354426,0.011616,0.479230,1.320243,0.011323,0.467136
1.451625,0.012449,0.513622,1.138452,0.009764,0.402813
1.533073,0.013148,0.542440,1.058542,0.009078,0.374539
1.611275,0.013819,0.570110,1.169289,0.010028,0.413724
1.684875,0.014450,0.596152,1.023143,0.008775,0.362014
1.753287,0.015037,0.620358,1.107917,0.009502,0.392009
1.815266,0.015568,0.642287,0.890929,0.007641,0.315234
1.870270,0.016040,0.661749,0.945739,0.008111,0.334627
1.926941,0.016526,0.681801,1.003922,0.008610,0.355213
1.985330,0.017027,0.702460,1.065683,0.009140,0.377066
2.035210,0.017454,0.720109,0.746726,0.006404,0.264211
2.076117,0.017805,0.734583,0.777047,0.006664,0.274939
2.117847,0.018163,0.749348,0.808598,0.006935,0.286102
2.160416,0.018528,0.764410,0.841430,0.007216,0.297719
2.203841,0.018901,0.779775,0.875595,0.007509,0.309808
2.248138,0.019280,0.795448,0.911148,0.007814,0.322387
2.293325,0.019668,0.811437,0.948144,0.008131,0.335478
2.351235,0.020165,0.831927,1.494702,0.012819,0.528864
2.398257,0.020568,0.848564,0.518499,0.004447,0.183458
2.422240,0.020774,0.857050,0.528920,0.004536,0.187146
2.446462,0.020981,0.865621,0.539552,0.004627,0.190907
2.434411,0.020878,0.861357,-1.068393,-0.009163,-0.378025
2.398257,0.020568,0.848564,-0.518499,-0.004447,-0.183458
2.374512,0.020364,0.840163,-0.508282,-0.004359,-0.179843
2.339421,0.020063,0.827747,-0.986643,-0.008462,-0.349099
2.293325,0.019668,0.811437,-0.948144,-0.008131,-0.335478
2.248138,0.019280,0.795448,-0.911148,-0.007814,-0.322387
2.203841,0.018901,0.779775,-0.875595,-0.007509,-0.309808
2.160416,0.018528,0.764410,-0.841430,-0.007216,-0.297719
2.117847,0.018163,0.749348,-0.808598,-0.006935,-0.286102
2.076117,0.017805,0.734583,-0.777047,-0.006664,-0.274939
2.035210,0.017454,0.720109,-0.746726,-0.006404,-0.264211
1.985330,0.017027,0.702460,-1.065683,-0.009140,-0.377066
1.926941,0.016526,0.681801,-1.003922,-0.008610,-0.355213
1.870270,0.016040,0.661749,-0.945739,-0.008111,-0.334627
1.815266,0.015568,0.642287,-0.890929,-0.007641,-0.315234
1.753287,0.015037,0.620358,-1.107917,-0.009502,-0.392009
1.684875,0.014450,0.596152,-1.023143,-0.008775,-0.362014
1.611275,0.013819,0.570110,-1.169289,-0.010028,-0.413724
1.533073,0.013148,0.542440,-1.058542,-0.009078,-0.374539
1.451625,0.012449,0.513622,-1.138452,-0.009764,-0.402813
1.360929,0.011672,0.481531,-1.166909,-0.010008,-0.412882
1.257292,0.010783,0.444862,-1.279160,-0.010970,-0.452600
1.126894,0.009664,0.398724,-1.507322,-0.012927,-0.533329
0.973709,0.008351,0.344523,-1.385496,-0.011882,-0.490224
0.789686,0.006773,0.279411,-1.475589,-0.012655,-0.522101
0.484485,0.004155,0.171423,-1.457547,-0.012500,-0.515717
0.000000,0.000000,0.000000,-1.464183,-0.012557,-0.518065
0.000000,0.000000,0.000000,-1.479210,0.000000,0.000000
-0.455742,-0.172855,-0.068770,-1.462899,-0.554852,-0.220747
-0.737455,-0.279704,-0.111280,-1.404082,-0.532544,-0.211871
-0.909478,-0.344949,-0.137237,-1.450819,-0.550270,-0.218924
-1.047377,-0.397252,-0.158046,-1.286882,-0.488092,-0.194186
-1.160580,-0.440188,-0.175128,-1.272156,-0.482507,-0.191964
-1.270304,-0.481804,-0.191685,-1.472031,-0.558315,-0.222125
-1.367496,-0.518667,-0.206351,-1.148186,-0.435487,-0.173258
-1.444224,-0.547769,-0.217929,-1.067592,-0.404919,-0.161096
-1.517894,-0.575711,-0.229045,-1.179286,-0.447283,-0.177950
-1.587228,-0.602008,-0.239508,-1.031891,-0.391378,-0.155709
-1.651676,-0.626452,-0.249233,-1.117390,-0.423806,-0.168611
-1.710063,-0.648597,-0.258043,-0.898547,-0.340803,-0.135588
-1.761879,-0.668250,-0.265862,-0.953826,-0.361769,-0.143929
-1.815266,-0.688499,-0.273918,-1.012505,-0.384025,-0.152784
-1.870270,-0.709361,-0.282218,-1.074795,-0.407651,-0.162183
-1.917260,-0.727183,-0.289308,-0.753111,-0.285642,-0.113642
-1.955797,-0.741799,-0.295123,-0.783690,-0.297240,-0.118256
-1.995108,-0.756710,-0.301055,-0.815511,-0.309309,-0.123058
-2.035210,-0.771919,-0.307107,-0.848624,-0.321868,-0.128055
-2.076117,-0.787435,-0.313279,-0.883082,-0.334938,-0.133254
-2.117847,-0.803263,-0.319576,-0.918939,-0.348537,-0.138665
-2.160416,-0.819408,-0.326000,-0.956251,-0.362689,-0.144295
-2.192822,-0.831699,-0.330890,-0.492625,-0.186844,-0.074336
-2.214750,-0.840016,-0.334199,-0.502527,-0.190600,-0.075830
-2.236898,-0.848416,-0.337541,-0.512628,-0.194431,-0.077354
-2.259267,-0.856900,-0.340916,-0.522932,-0.198339,-0.078909
-2.281859,-0.865469,-0.344325,-0.533443,-0.202326,-0.080495
-2.304678,-0.874124,-0.347768,-0.544165,-0.206392,-0.082113
-2.327725,-0.882865,-0.351246,-0.555103,-0.210541,-0.083763
-2.351002,-0.891694,-0.354759,-0.566260,-0.214773,-0.085447
-2.374512,-0.900611,-0.358306,-0.577642,-0.219090,-0.087164
-2.398257,-0.909617,-0.361889,-0.589253,-0.223493,-0.088916
-2.422240,-0.918713,-0.365508,-0.601097,-0.227985,-0.090704
-2.446462,-0.927900,-0.369163,-0.613179,-0.232568,-0.092527
-2.470927,-0.937179,-0.372855,-0.625504,-0.237243,-0.094386
-2.495636,-0.946551,-0.376583,-0.638076,-0.242011,-0.096284
-2.520592,-0.956017,-0.380349,-0.650902,-0.246876,-0.098219
-2.520592,-0.956017,-0.380349,0.650902,0.246876,0.098219
-2.495636,-0.946551,-0.376583,0.638076,0.242011,0.096284
-2.470927,-0.937179,-0.372855,0.625504,0.237243,0.094386
-2.446462,-0.927900,-0.369163,0.613179,0.232568,0.092527
-2.422240,-0.918713,-0.365508,0.601097,0.227985,0.090704
-2.398257,-0.909617,-0.361889,0.589253,0.223493,0.088916
-2.374512,-0.900611,-0.358306,0.577642,0.219090,0.087164
-2.351002,-0.891694,-0.354759,0.566260,0.214773,0.085447
-2.327725,-0.882865,-0.351246,0.555103,0.210541,0.083763
-2.304678,-0.874124,-0.347768,0.544165,0.206392,0.082113
-2.281859,-0.865469,-0.344325,0.533443,0.202326,0.080495
-2.259267,-0.856900,-0.340916,0.522932,0.198339,0.078909
-2.214969,-0.840099,-0.334232,1.507482,0.571762,0.227474
-2.160416,-0.819408,-0.326000,0.956251,0.362689,0.144295
-2.117847,-0.803263,-0.319576,0.918939,0.348537,0.138665
-2.076117,-0.787435,-0.313279,0.883082,0.334938,0.133254
-2.035210,-0.771919,-0.307107,0.848624,0.321868,0.128055
-1.995108,-0.756710,-0.301055,0.815511,0.309309,0.123058
-1.955797,-0.741799,-0.295123,0.783690,0.297240,0.118256
-1.917260,-0.727183,-0.289308,0.753111,0.285642,0.113642
-1.870270,-0.709361,-0.282218,1.074795,0.407651,0.162183
-1.815266,-0.688499,-0.273918,1.012505,0.384025,0.152784
-1.761879,-0.668250,-0.265862,0.953826,0.361769,0.143929
-1.701723,-0.645434,-0.256785,1.186132,0.449879,0.178983
-1.635323,-0.620249,-0.246765,1.095373,0.415456,0.165288
-1.571513,-0.596047,-0.237136,1.011559,0.383666,0.152641
-1.502866,-0.570011,-0.226778,1.156050,0.438469,0.174444
-1.423022,-0.539727,-0.214729,1.243321,0.471570,0.187613
-1.340551,-0.508448,-0.202285,1.103384,0.418494,0.166497
-1.255835,-0.476316,-0.189501,1.154820,0.438003,0.174259
-1.159946,-0.439947,-0.175032,1.220083,0.462756,0.184106
-1.047350,-0.397242,-0.158042,1.320117,0.500697,0.199201
-0.915043,-0.347060,-0.138077,1.327763,0.503597,0.200355
-0.744973,-0.282555,-0.112414,1.494586,0.566870,0.225528
-0.455532,-0.172775,-0.068738,1.473429,0.558846,0.222336
0.000000,0.000000,0.000000,1.449106,0.549621,0.218665
0.000000,0.000000,0.000000,0.704212,0.000000,0.000000
0.194232,0.413396,-0.156661,0.682814,1.453273,-0.550735
0.314681,0.669753,-0.253811,0.678846,1.444829,-0.547535
0.386135,0.821834,-0.311444,0.617401,1.314051,-0.497975
0.443418,0.943753,-0.357646,0.636378,1.354440,-0.513281
0.497345,1.058529,-0.401142,0.709211,1.509456,-0.572026
0.544256,1.158372,-0.438979,0.579935,1.234310,-0.467757
0.581658,1.237977,-0.469146,0.536978,1.142881,-0.433108
0.614294,1.307437,-0.495469,0.499286,1.062660,-0.402708
0.643528,1.369660,-0.519049,0.477892,1.017126,-0.385452
0.673019,1.432426,-0.542835,0.556231,1.183860,-0.448638
0.707280,1.505345,-0.570468,0.704567,1.499572,-0.568281
0.738759,1.572344,-0.595858,0.501360,1.067074,-0.404381
0.763695,1.625417,-0.615971,0.495187,1.053935,-0.399401
0.787634,1.676368,-0.635279,0.492750,1.048749,-0.397436
0.807423,1.718485,-0.651240,0.345271,0.734861,-0.278484
0.803465,1.710063,-0.648048,-0.512758,-1.091333,0.413573
0.779836,1.659770,-0.628989,-0.483041,-1.028085,0.389605
0.756901,1.610956,-0.610491,-0.455047,-0.968502,0.367025
0.734640,1.563578,-0.592537,-0.428674,-0.912373,0.345755
0.709558,1.510193,-0.572306,-0.533079,-1.134584,0.429964
0.681871,1.451266,-0.549974,-0.492290,-1.047769,0.397064
0.653071,1.389970,-0.526746,-0.529239,-1.126410,0.426867
0.617319,1.313876,-0.497909,-0.673592,-1.433645,0.543297
0.592006,1.260000,-0.477492,-0.151030,-0.321446,0.121816
0.567458,1.207755,-0.457693,-0.596005,-1.268512,0.480718
0.526263,1.120077,-0.424467,-0.599651,-1.276273,0.483659
0.480163,1.021960,-0.387284,-0.628639,-1.337970,0.507040
0.428320,0.911618,-0.345468,-0.617322,-1.313882,0.497911
0.394722,0.840110,-0.318370,-0.134719,-0.286730,0.108660
0.373215,0.794336,-0.301023,-0.299379,-0.637187,0.241469
0.316052,0.672672,-0.254917,-0.695248,-1.479737,0.560764
0.193763,0.412397,-0.156283,-0.685604,-1.459211,0.552985
0.000000,0.000000,0.000000,-0.686282,-1.460654,0.553532
0.000000,0.000000,0.000000,1.469849,0.000000,0.000000
0.502900,0.004311,0.132379,1.489109,0.012765,0.391981
0.821772,0.007044,0.216316,1.506961,0.012918,0.396680
1.009129,0.008650,0.265635,1.340005,0.011487,0.352732
1.162352,0.009964,0.305968,1.485412,0.012733,0.391007
1.295390,0.011104,0.340988,1.280947,0.010980,0.337186
1.402166,0.012019,0.369095,1.168539,0.010017,0.307597
1.495611,0.012820,0.393692,1.140042,0.009772,0.300095
1.579527,0.013540,0.415781,1.060020,0.009087,0.279031
1.660099,0.014230,0.436991,1.170922,0.010037,0.308224
1.735928,0.014880,0.456951,1.024572,0.008783,0.269700
1.806414,0.015485,0.475505,1.109465,0.009510,0.292046
1.870270,0.016032,0.492314,0.892174,0.007648,0.234848
1.926941,0.016518,0.507232,0.947060,0.008118,0.249296
1.985330,0.017018,0.522602,1.005324,0.008618,0.264633
2.045487,0.017534,0.538437,1.067171,0.009148,0.280913
2.096879,0.017974,0.551965,0.747769,0.006410,0.196837
2.139026,0.018336,0.563059,0.778132,0.006670,0.204829
2.182020,0.018704,0.574377,0.809727,0.006941,0.213146
2.225879,0.019080,0.585922,0.842605,0.007223,0.221800
2.270619,0.019464,0.597699,0.876818,0.007516,0.230806
2.316259,0.019855,0.609713,0.912421,0.007821,0.240178
2.362815,0.020254,0.621968,0.949469,0.008139,0.249930
2.422479,0.020766,0.637673,1.496790,0.012831,0.394003
2.470927,0.021181,0.650426,0.519223,0.004451,0.136676
2.495636,0.021393,0.656930,0.529659,0.004540,0.139423
2.483343,0.021287,0.653694,-1.048804,-0.008990,-0.276078
2.422479,0.020766,0.637673,-1.496790,-0.012831,-0.394003
2.362815,0.020254,0.621968,-0.949469,-0.008139,-0.249930
2.316259,0.019855,0.609713,-0.912421,-0.007821,-0.240178
2.270619,0.019464,0.597699,-0.876818,-0.007516,-0.230806
2.225879,0.019080,0.585922,-0.842605,-0.007223,-0.221800
2.182020,0.018704,0.574377,-0.809727,-0.006941,-0.213146
2.139026,0.018336,0.563059,-0.778132,-0.006670,-0.204829
2.096879,0.017974,0.551965,-0.747769,-0.006410,-0.196837
2.045487,0.017534,0.538437,-1.067171,-0.009148,-0.280913
1.985330,0.017018,0.522602,-1.005324,-0.008618,-0.264633
1.926941,0.016518,0.507232,-0.947060,-0.008118,-0.249296
1.870270,0.016032,0.492314,-0.892174,-0.007648,-0.234848
1.806414,0.015485,0.475505,-1.109465,-0.009510,-0.292046
1.735928,0.014880,0.456951,-1.024572,-0.008783,-0.269700
1.660099,0.014230,0.436991,-1.170922,-0.010037,-0.308224
1.579527,0.013540,0.415781,-1.060020,-0.009087,-0.279031
1.495611,0.012820,0.393692,-1.140042,-0.009772,-0.300095
1.402166,0.012019,0.369095,-1.168539,-0.010017,-0.307597
1.295390,0.011104,0.340988,-1.280947,-0.010980,-0.337186
1.162352,0.009964,0.305968,-1.485412,-0.012733,-0.391007
1.007358,0.008635,0.265169,-1.367557,-0.011723,-0.359984
0.822332,0.007049,0.216464,-1.453307,-0.012458,-0.382556
0.505231,0.004331,0.132993,-1.508519,-0.012931,-0.397090
0.000000,0.000000,0.000000,-1.469849,-0.012600,-0.386911
0.000000,0.000000,0.000000,-1.467220,0.000000,0.000000
-0.467572,-0.177339,-0.035607,-1.457295,-0.552720,-0.110977
-0.763952,-0.289750,-0.058177,-1.508852,-0.572274,-0.114903
-0.947785,-0.359473,-0.072177,-1.473798,-0.558979,-0.112234
-1.087373,-0.412416,-0.082807,-1.247547,-0.473167,-0.095004
-1.201005,-0.455514,-0.091460,-1.271725,-0.482337,-0.096846
-1.304436,-0.494743,-0.099337,-1.240273,-0.470408,-0.094450
-1.394983,-0.529086,-0.106232,-1.129328,-0.428329,-0.086002
-1.488428,-0.564527,-0.113348,-1.499334,-0.568664,-0.114179
-1.587621,-0.602149,-0.120902,-1.462770,-0.554796,-0.111394
-1.668193,-0.632708,-0.127038,-1.077383,-0.408627,-0.082046
-1.744780,-0.661756,-0.132870,-1.472788,-0.558596,-0.112157
-1.815266,-0.688490,-0.138238,-0.957017,-0.362975,-0.072880
-1.870270,-0.709352,-0.142427,-1.015893,-0.385306,-0.077363
-1.936720,-0.734554,-0.147487,-1.452149,-0.550768,-0.110585
-1.995108,-0.756700,-0.151933,-0.770819,-0.292354,-0.058700
-2.035210,-0.771910,-0.154987,-0.802118,-0.304225,-0.061084
-2.076117,-0.787425,-0.158102,-0.834687,-0.316578,-0.063564
-2.117847,-0.803252,-0.161280,-0.868578,-0.329432,-0.066145
-2.160416,-0.819397,-0.164522,-0.903846,-0.342809,-0.068831
-2.203841,-0.835867,-0.167829,-0.940546,-0.356728,-0.071625
-2.259490,-0.856974,-0.172067,-1.482724,-0.562364,-0.112914
-2.304678,-0.874113,-0.175508,-0.514343,-0.195079,-0.039169
-2.327725,-0.882854,-0.177263,-0.524682,-0.199000,-0.039956
-2.351002,-0.891682,-0.179036,-0.535228,-0.203000,-0.040759
-2.374512,-0.900599,-0.180826,-0.545986,-0.207080,-0.041578
-2.398257,-0.909605,-0.182634,-0.556960,-0.211243,-0.042414
-2.422240,-0.918701,-0.184461,-0.568155,-0.215488,-0.043267
-2.446462,-0.927888,-0.186305,-0.579575,-0.219820,-0.044136
-2.470927,-0.937167,-0.188168,-0.591224,-0.224238,-0.045023
-2.495636,-0.946539,-0.190050,-0.603108,-0.228745,-0.045928
-2.520592,-0.956004,-0.191950,-0.615231,-0.233343,-0.046852
-2.545798,-0.965564,-0.193870,-0.627597,-0.238033,-0.047793
-2.571256,-0.975220,-0.195809,-0.640211,-0.242818,-0.048754
-2.558590,-0.970416,-0.194844,1.267714,0.480815,0.096540
-2.520592,-0.956004,-0.191950,0.615231,0.233343,0.046852
-2.495636,-0.946539,-0.190050,0.603108,0.228745,0.045928
-2.470927,-0.937167,-0.188168,0.591224,0.224238,0.045023
-2.446462,-0.927888,-0.186305,0.579575,0.219820,0.044136
-2.422240,-0.918701,-0.184461,0.568155,0.215488,0.043267
-2.398257,-0.909605,-0.182634,0.556960,0.211243,0.042414
-2.374512,-0.900599,-0.180826,0.545986,0.207080,0.041578
-2.351002,-0.891682,-0.179036,0.535228,0.203000,0.040759
-2.327725,-0.882854,-0.177263,0.524682,0.199000,0.039956
-2.304678,-0.874113,-0.175508,0.514343,0.195079,0.039169
-2.281859,-0.865458,-0.173770,0.504209,0.191235,0.038397
-2.259267,-0.856889,-0.172050,0.494274,0.187467,0.037640
-2.225879,-0.844226,-0.169507,0.959451,0.363898,0.073065
-2.182020,-0.827591,-0.166167,0.922013,0.349699,0.070214
-2.139026,-0.811285,-0.162893,0.886037,0.336054,0.067474
-2.096879,-0.795299,-0.159683,0.851464,0.322941,0.064841
-2.055562,-0.779629,-0.156537,0.818240,0.310340,0.062311
-2.015059,-0.764267,-0.153453,0.786313,0.298231,0.059880
-1.975355,-0.749208,-0.150429,0.755631,0.286594,0.057544
-1.926941,-0.730846,-0.146742,1.078391,0.409010,0.082123
-1.870270,-0.709352,-0.142427,1.015893,0.385306,0.077363
-1.815266,-0.688490,-0.138238,0.957017,0.362975,0.072880
-1.761879,-0.668241,-0.134172,0.901554,0.341939,0.068656
-1.701723,-0.645426,-0.129591,1.121129,0.425219,0.085377
-1.635323,-0.620241,-0.124535,1.035344,0.392683,0.078844
-1.563888,-0.593148,-0.119095,1.183232,0.448774,0.090107
-1.487986,-0.564360,-0.113314,1.071165,0.406269,0.081572
-1.395466,-0.529269,-0.106269,1.505424,0.570973,0.114642
-1.290575,-0.489486,-0.098281,1.238589,0.469769,0.094322
-1.184411,-0.449220,-0.090196,1.306120,0.495382,0.099465
-1.064875,-0.403883,-0.081093,1.296103,0.491583,0.098702
-0.928722,-0.352243,-0.070725,1.318626,0.500125,0.100417
-0.761716,-0.288902,-0.058007,1.366811,0.518401,0.104087
-0.470301,-0.178375,-0.035815,1.490449,0.565294,0.113502
0.000000,0.000000,0.000000,1.445219,0.548139,0.110058
0.000000,0.000000,0.000000,0.704284,0.000000,0.000000
0.194251,0.413409,-0.156652,0.682864,1.453285,-0.550692
0.314708,0.669768,-0.253794,0.678875,1.444795,-0.547474
0.386168,0.821850,-0.311423,0.617439,1.314045,-0.497930
0.443456,0.943771,-0.357622,0.636424,1.354450,-0.513240
0.497385,1.058544,-0.401113,0.709169,1.509266,-0.571905
0.544294,1.158376,-0.438942,0.579888,1.234130,-0.467647
0.581696,1.237977,-0.469105,0.536990,1.142832,-0.433052
0.614334,1.307437,-0.495426,0.499298,1.062615,-0.402655
0.643574,1.369667,-0.519006,0.478029,1.017351,-0.385504
0.673067,1.432434,-0.542791,0.556118,1.183540,-0.448478
0.707330,1.505354,-0.570422,0.704742,1.499844,-0.568334
0.738816,1.572362,-0.595813,0.501385,1.067058,-0.404339
0.763750,1.625427,-0.615921,0.495026,1.053523,-0.399210
0.787686,1.676368,-0.635224,0.492761,1.048704,-0.397384
0.807476,1.718485,-0.651184,0.345279,0.734829,-0.278448
0.803518,1.710063,-0.647992,-0.512769,-1.091286,0.413520
0.779887,1.659770,-0.628935,-0.483052,-1.028041,0.389554
0.756950,1.610956,-0.610438,-0.455057,-0.968461,0.366978
0.734689,1.563578,-0.592485,-0.428684,-0.912334,0.345710
0.709604,1.510193,-0.572256,-0.533091,-1.134535,0.429908
0.681916,1.451266,-0.549927,-0.492301,-1.047724,0.397013
0.653119,1.389980,-0.526703,-0.529093,-1.126026,0.426684
0.617368,1.313895,-0.497873,-0.673633,-1.433638,0.543247
0.592049,1.260009,-0.477454,-0.151166,-0.321714,0.121907
0.567496,1.207755,-0.457653,-0.596018,-1.268457,0.480655
0.526300,1.120081,-0.424431,-0.599617,-1.276116,0.483557
0.480199,1.021970,-0.387254,-0.628633,-1.337869,0.506957
0.428355,0.911633,-0.345444,-0.617315,-1.313782,0.497830
0.394758,0.840131,-0.318350,-0.134703,-0.286678,0.108631
0.373247,0.794351,-0.301003,-0.299458,-0.637312,0.241496
0.316078,0.672684,-0.254899,-0.695250,-1.479645,0.560680
0.193782,0.412410,-0.156274,-0.685655,-1.459224,0.552942
0.000000,0.000000,0.000000,-0.686351,-1.460705,0.553503
0.000000,0.000000,0.000000,1.457439,0.000000,0.000000
0.466539,0.004394,0.227995,1.500761,0.014134,0.733414
0.757728,0.007136,0.370297,1.413248,0.013310,0.690646
0.925525,0.008716,0.452299,1.332241,0.012547,0.651059
1.068902,0.010067,0.522366,1.498847,0.014116,0.732478
1.202060,0.011321,0.587440,1.492252,0.014054,0.729255
1.308944,0.012327,0.639673,1.156911,0.010895,0.565376
1.394983,0.013138,0.681720,1.156051,0.010887,0.564956
1.473253,0.013875,0.719971,1.074906,0.010123,0.525300
1.548404,0.014582,0.756696,1.187364,0.011182,0.580258
1.619131,0.015249,0.791260,1.038960,0.009785,0.507734
1.684875,0.015868,0.823389,1.125044,0.010595,0.549803
1.744435,0.016429,0.852496,0.904702,0.008520,0.442123
1.797293,0.016926,0.878327,0.960359,0.009044,0.469322
1.851753,0.017439,0.904941,1.019441,0.009601,0.498195
1.917544,0.018059,0.937093,1.457221,0.013724,0.712136
1.975355,0.018603,0.965345,0.773511,0.007285,0.378011
2.015059,0.018977,0.984748,0.804919,0.007581,0.393359
2.055562,0.019359,1.004542,0.837602,0.007888,0.409331
2.096879,0.019748,1.024733,0.871612,0.008209,0.425952
2.139026,0.020145,1.045330,0.907003,0.008542,0.443247
2.182020,0.020550,1.066341,0.943831,0.008889,0.461245
2.225879,0.020963,1.087775,0.982154,0.009250,0.479973
2.259267,0.021277,1.104091,0.505970,0.004765,0.247265
2.281859,0.021490,1.115132,0.516140,0.004861,0.252235
2.304678,0.021705,1.126283,0.526514,0.004959,0.257304
2.327725,0.021922,1.137546,0.537097,0.005058,0.262476
2.316259,0.021814,1.131943,-1.063532,-0.010016,-0.519742
2.281859,0.021490,1.115132,-0.516140,-0.004861,-0.252235
2.259267,0.021277,1.104091,-0.505970,-0.004765,-0.247265
2.225879,0.020963,1.087775,-0.982154,-0.009250,-0.479973
2.182020,0.020550,1.066341,-0.943831,-0.008889,-0.461245
2.139026,0.020145,1.045330,-0.907003,-0.008542,-0.443247
2.096879,0.019748,1.024733,-0.871612,-0.008209,-0.425952
2.055562,0.019359,1.004542,-0.837602,-0.007888,-0.409331
2.015059,0.018977,0.984748,-0.804919,-0.007581,-0.393359
1.975355,0.018603,0.965345,-0.773511,-0.007285,-0.378011
1.936432,0.018237,0.946324,-0.743329,-0.007000,-0.363261
1.888973,0.017790,0.923131,-1.060834,-0.009991,-0.518424
1.833419,0.017267,0.895981,-0.999354,-0.009412,-0.488379
1.779498,0.016759,0.869631,-0.941437,-0.008866,-0.460075
1.727163,0.016266,0.844055,-0.886876,-0.008352,-0.433411
1.668193,0.015711,0.815236,-1.102876,-0.010387,-0.538970
1.603100,0.015098,0.783426,-1.018488,-0.009592,-0.497729
1.533073,0.014438,0.749204,-1.163969,-0.010962,-0.568825
1.458667,0.013737,0.712842,-1.053726,-0.009924,-0.514950
1.381171,0.013007,0.674971,-1.133272,-0.010673,-0.553824
1.294877,0.012195,0.632799,-1.161600,-0.010940,-0.567668
1.186357,0.011173,0.579766,-1.495365,-0.014083,-0.730776
1.063279,0.010014,0.519619,-1.259446,-0.011861,-0.615484
0.927706,0.008737,0.453365,-1.394274,-0.013131,-0.681374
0.753163,0.007093,0.368066,-1.454365,-0.013697,-0.710740
0.464184,0.004372,0.226844,-1.464575,-0.013793,-0.715730
0.000000,0.000000,0.000000,-1.493805,-0.014068,-0.730014
0.000000,0.000000,0.000000,-1.509069,0.000000,0.000000
-0.439586,-0.180189,-0.107207,-1.461813,-0.599205,-0.356510
-0.709647,-0.290888,-0.173070,-1.411647,-0.578642,-0.344275
-0.877420,-0.359659,-0.213987,-1.490258,-0.610865,-0.363447
-1.014071,-0.415673,-0.247313,-1.343763,-0.550816,-0.327719
-1.122244,-0.460014,-0.273695,-1.207303,-0.494880,-0.294439
-1.218932,-0.499647,-0.297275,-1.307186,-0.535823,-0.318799
-1.310273,-0.537088,-0.319552,-1.254958,-0.514414,-0.306061
-1.387871,-0.568896,-0.338476,-1.065537,-0.436769,-0.259865
-1.458667,-0.597915,-0.355742,-1.177015,-0.482465,-0.287053
-1.525295,-0.625227,-0.371992,-1.029904,-0.422163,-0.251175
-1.587228,-0.650613,-0.387096,-1.115239,-0.457142,-0.271986
-1.643337,-0.673613,-0.400780,-0.896817,-0.367610,-0.218717
-1.693131,-0.694024,-0.412924,-0.951989,-0.390226,-0.232173
-1.744435,-0.715053,-0.425436,-1.010556,-0.414232,-0.246456
-1.806414,-0.740459,-0.440551,-1.444520,-0.592117,-0.352292
-1.860873,-0.762782,-0.453833,-0.766769,-0.314303,-0.187001
-1.898277,-0.778114,-0.462955,-0.797903,-0.327065,-0.194594
-1.936432,-0.793754,-0.472260,-0.830301,-0.340345,-0.202495
-1.975355,-0.809709,-0.481753,-0.864015,-0.354164,-0.210717
-2.015059,-0.825984,-0.491436,-0.899097,-0.368545,-0.219273
-2.055562,-0.842586,-0.501314,-0.935604,-0.383509,-0.228177
-2.096879,-0.859522,-0.511390,-0.973594,-0.399081,-0.237442
-2.128331,-0.872415,-0.519061,-0.501560,-0.205592,-0.122321
-2.149615,-0.881139,-0.524252,-0.511641,-0.209724,-0.124780
-2.171111,-0.889950,-0.529494,-0.521925,-0.213940,-0.127288
-2.192822,-0.898850,-0.534789,-0.532416,-0.218240,-0.129846
-2.214750,-0.907838,-0.540137,-0.543117,-0.222627,-0.132456
-2.236898,-0.916917,-0.545539,-0.554034,-0.227102,-0.135119
-2.259267,-0.926086,-0.550994,-0.565170,-0.231666,-0.137835
-2.281859,-0.935347,-0.556504,-0.576530,-0.236323,-0.140605
-2.304678,-0.944700,-0.562069,-0.588118,-0.241073,-0.143431
-2.327725,-0.954147,-0.567690,-0.599939,-0.245918,-0.146314
-2.351002,-0.963689,-0.573366,-0.611998,-0.250861,-0.149255
-2.374512,-0.973325,-0.579100,-0.624299,-0.255904,-0.152255
-2.398257,-0.983059,-0.584891,-0.636848,-0.261047,-0.155316
-2.422240,-0.992889,-0.590740,-0.649648,-0.266294,-0.158437
-2.434291,-0.997829,-0.593679,-0.000000,0.000000,0.000000
-2.422240,-0.992889,-0.590740,0.649648,0.266294,0.158437
-2.398257,-0.983059,-0.584891,0.636848,0.261047,0.155316
-2.374512,-0.973325,-0.579100,0.624299,0.255904,0.152255
-2.351002,-0.963689,-0.573366,0.611998,0.250861,0.149255
-2.327725,-0.954147,-0.567690,0.599939,0.245918,0.146314
-2.304678,-0.944700,-0.562069,0.588118,0.241073,0.143431
-2.281859,-0.935347,-0.556504,0.576530,0.236323,0.140605
-2.259267,-0.926086,-0.550994,0.565170,0.231666,0.137835
-2.236898,-0.916917,-0.545539,0.554034,0.227102,0.135119
-2.214750,-0.907838,-0.540137,0.543117,0.222627,0.132456
-2.192822,-0.898850,-0.534789,0.532416,0.218240,0.129846
-2.171111,-0.889950,-0.529494,0.521925,0.213940,0.127288
-2.128542,-0.872501,-0.519113,1.504580,0.616735,0.366939
-2.076117,-0.851012,-0.506327,0.954410,0.391218,0.232763
-2.035210,-0.834244,-0.496351,0.917169,0.375953,0.223681
-1.995108,-0.817806,-0.486570,0.881382,0.361283,0.214953
-1.955797,-0.801692,-0.476983,0.846990,0.347186,0.206565
-1.917260,-0.785895,-0.467585,0.813941,0.333639,0.198505
-1.879482,-0.770410,-0.458371,0.782181,0.320620,0.190760
-1.842449,-0.755230,-0.449340,0.751661,0.308110,0.183316
-1.797293,-0.736720,-0.438327,1.072725,0.439716,0.261618
-1.744435,-0.715053,-0.425436,1.010556,0.414232,0.246456
-1.693131,-0.694024,-0.412924,0.951989,0.390226,0.232173
-1.643337,-0.673613,-0.400780,0.896817,0.367610,0.218717
-1.587228,-0.650613,-0.387096,1.115239,0.457142,0.271986
-1.525295,-0.625227,-0.371992,1.029904,0.422163,0.251175
-1.458667,-0.597915,-0.355742,1.177015,0.482465,0.287053
-1.381171,-0.566150,-0.336842,1.265869,0.518887,0.308722
-1.294877,-0.530777,-0.315797,1.297512,0.531857,0.316439
-1.200588,-0.492128,-0.292801,1.312751,0.538104,0.320156
-1.099275,-0.450599,-0.268093,1.271841,0.521335,0.310179
-0.991545,-0.406440,-0.241820,1.223725,0.501611,0.298444
-0.866454,-0.355164,-0.211312,1.330923,0.545553,0.324588
-0.709042,-0.290640,-0.172922,1.366532,0.560149,0.333272
-0.438299,-0.179661,-0.106893,1.472984,0.603784,0.359234
0.000000,0.000000,0.000000,1.452947,0.595571,0.354347
0.000000,0.000000,0.000000,0.704312,0.000000,0.000000
0.194259,0.413405,-0.156658,0.682897,1.453282,-0.550714
0.314722,0.669764,-0.253804,0.678914,1.444805,-0.547501
0.386185,0.821846,-0.311434,0.617471,1.314047,-0.497951
0.443476,0.943766,-0.357635,0.636455,1.354447,-0.513261
0.497408,1.058540,-0.401128,0.709230,1.509322,-0.571950
0.544321,1.158375,-0.438960,0.579942,1.234182,-0.467687
0.581725,1.237977,-0.469125,0.537024,1.142847,-0.433076
0.614365,1.307437,-0.495447,0.499329,1.062628,-0.402677
0.643606,1.369665,-0.519028,0.478022,1.017285,-0.385495
0.673100,1.432432,-0.542813,0.556189,1.183633,-0.448532
0.707365,1.505351,-0.570445,0.704740,1.499765,-0.568328
0.738851,1.572357,-0.595837,0.501413,1.067063,-0.404358
0.763787,1.625424,-0.615946,0.495107,1.053643,-0.399273
0.787725,1.676368,-0.635251,0.492792,1.048717,-0.397406
0.807516,1.718485,-0.651211,0.345301,0.734839,-0.278463
0.803559,1.710063,-0.648020,-0.512802,-1.091299,0.413542
0.779926,1.659770,-0.628961,-0.483082,-1.028053,0.389576
0.756989,1.610956,-0.610464,-0.455086,-0.968473,0.366998
0.734726,1.563578,-0.592510,-0.428711,-0.912345,0.345729
0.709640,1.510193,-0.572280,-0.533125,-1.134549,0.429932
0.681950,1.451266,-0.549950,-0.492332,-1.047737,0.397035
0.653150,1.389977,-0.526725,-0.529172,-1.126138,0.426744
0.617397,1.313889,-0.497892,-0.673668,-1.433640,0.543271
0.592077,1.260007,-0.477473,-0.151137,-0.321636,0.121882
0.567524,1.207755,-0.457673,-0.596056,-1.268473,0.480682
0.526326,1.120080,-0.424449,-0.599668,-1.276161,0.483595
0.480222,1.021967,-0.387269,-0.628678,-1.337898,0.506990
0.428374,0.911629,-0.345457,-0.617360,-1.313811,0.497862
0.394775,0.840125,-0.318361,-0.134717,-0.286694,0.108641
0.373264,0.794347,-0.301014,-0.299456,-0.637276,0.241492
0.316093,0.672681,-0.254909,-0.695298,-1.479672,0.560714
0.193790,0.412406,-0.156279,-0.685688,-1.459220,0.552964
0.000000,0.000000,0.000000,-0.686379,-1.460690,0.553521
0.000000,0.000000,0.000000,1.509460,0.000000,0.000000
0.483400,0.004552,0.188079,1.506348,0.014185,0.586084
0.786183,0.007403,0.305885,1.492648,0.014056,0.580753
0.969396,0.009129,0.377169,1.455955,0.013710,0.566477
1.119496,0.010542,0.435569,1.459912,0.013748,0.568017
1.244844,0.011722,0.484339,1.300818,0.012250,0.506117
1.347454,0.012689,0.524262,1.186666,0.011175,0.461703
1.437252,0.013534,0.559200,1.157727,0.010902,0.450444
1.517894,0.014294,0.590576,1.076464,0.010137,0.418826
1.595322,0.015023,0.620702,1.189086,0.011197,0.462645
1.668193,0.015709,0.649054,1.040466,0.009798,0.404820
1.735928,0.016347,0.675408,1.126675,0.010610,0.438362
1.797293,0.016925,0.699284,0.906014,0.008532,0.352508
1.851753,0.017438,0.720473,0.961752,0.009057,0.374194
1.907863,0.017966,0.742304,1.020919,0.009614,0.397215
1.975648,0.018604,0.768677,1.459333,0.013742,0.567792
2.035210,0.019165,0.791851,0.774632,0.007295,0.301391
2.076117,0.019550,0.807768,0.806086,0.007591,0.313629
2.117847,0.019943,0.824004,0.838816,0.007899,0.326363
2.160416,0.020344,0.840566,0.872875,0.008220,0.339615
2.203841,0.020753,0.857461,0.908317,0.008553,0.353405
2.248138,0.021170,0.874696,0.945199,0.008901,0.367754
2.304906,0.021705,0.896784,1.490059,0.014032,0.579746
2.351002,0.022139,0.914718,0.516888,0.004867,0.201109
2.374512,0.022360,0.923866,0.527277,0.004965,0.205151
2.398257,0.022584,0.933104,0.537876,0.005065,0.209274
2.386444,0.022473,0.928508,-1.065074,-0.010030,-0.414395
2.351002,0.022139,0.914718,-0.516888,-0.004867,-0.201109
2.304906,0.021705,0.896784,-1.490059,-0.014032,-0.579746
2.248138,0.021170,0.874696,-0.945199,-0.008901,-0.367754
2.203841,0.020753,0.857461,-0.908317,-0.008553,-0.353405
2.160416,0.020344,0.840566,-0.872875,-0.008220,-0.339615
2.117847,0.019943,0.824004,-0.838816,-0.007899,-0.326363
2.076117,0.019550,0.807768,-0.806086,-0.007591,-0.313629
2.035210,0.019165,0.791851,-0.774632,-0.007295,-0.301391
1.995108,0.018788,0.776249,-0.744407,-0.007010,-0.289631
1.946211,0.018327,0.757224,-1.062372,-0.010004,-0.413344
1.888973,0.017788,0.734954,-1.000803,-0.009424,-0.389388
1.833419,0.017265,0.713339,-0.942801,-0.008878,-0.366821
1.762228,0.016595,0.685641,-1.450911,-0.013663,-0.564514
1.684875,0.015866,0.655544,-1.061379,-0.009995,-0.412957
1.611275,0.015173,0.626909,-1.212986,-0.011422,-0.471944
1.518345,0.014298,0.590752,-1.506751,-0.014189,-0.586241
1.423022,0.013400,0.553664,-1.134915,-0.010687,-0.441568
1.321427,0.012444,0.514135,-1.465794,-0.013803,-0.570305
1.208233,0.011378,0.470095,-1.225429,-0.011540,-0.476785
1.089676,0.010261,0.423967,-1.316379,-0.012396,-0.512172
0.948399,0.008931,0.368999,-1.359901,-0.012806,-0.529105
0.776695,0.007314,0.302193,-1.365103,-0.012855,-0.531129
0.481757,0.004537,0.187440,-1.499090,-0.014117,-0.583260
0.000000,0.000000,0.000000,-1.492069,-0.014051,-0.580528
0.000000,0.000000,0.000000,-1.453484,0.000000,0.000000
-0.450631,-0.184725,-0.073500,-1.470977,-0.602990,-0.239925
-0.736832,-0.302046,-0.120181,-1.498415,-0.614238,-0.244400
-0.905531,-0.371200,-0.147697,-1.330593,-0.545443,-0.217027
-1.034864,-0.424217,-0.168792,-1.281543,-0.525337,-0.209027
-1.148675,-0.470871,-0.187355,-1.320016,-0.541108,-0.215302
-1.258489,-0.515886,-0.205267,-1.454953,-0.596422,-0.237311
-1.353957,-0.555021,-0.220838,-1.149813,-0.471337,-0.187541
-1.429925,-0.586162,-0.233229,-1.069105,-0.438253,-0.174377
-1.502866,-0.616062,-0.245126,-1.180957,-0.484104,-0.192621
-1.571513,-0.644203,-0.256323,-1.033353,-0.423597,-0.168546
-1.635323,-0.670360,-0.266730,-1.118973,-0.458695,-0.182511
-1.693131,-0.694057,-0.276159,-0.899820,-0.368859,-0.146766
-1.744435,-0.715088,-0.284527,-0.955177,-0.391551,-0.155795
-1.797293,-0.736755,-0.293149,-1.013940,-0.415639,-0.165379
-1.851753,-0.759080,-0.302031,-1.076317,-0.441209,-0.175553
-1.898277,-0.778151,-0.309620,-0.754178,-0.309156,-0.123011
-1.936432,-0.793792,-0.315843,-0.784801,-0.321709,-0.128005
-1.975355,-0.809747,-0.322191,-0.816667,-0.334772,-0.133203
-2.015059,-0.826023,-0.328667,-0.849827,-0.348365,-0.138611
-2.055562,-0.842626,-0.335274,-0.884333,-0.362510,-0.144240
-2.096879,-0.859563,-0.342013,-0.920240,-0.377230,-0.150096
-2.139026,-0.876840,-0.348887,-0.957606,-0.392547,-0.156191
-2.171111,-0.889993,-0.354120,-0.493323,-0.202226,-0.080464
-2.192822,-0.898893,-0.357662,-0.503239,-0.206290,-0.082081
-2.214750,-0.907882,-0.361238,-0.513354,-0.210437,-0.083731
-2.236898,-0.916960,-0.364851,-0.523673,-0.214667,-0.085414
-2.259267,-0.926130,-0.368499,-0.534198,-0.218981,-0.087131
-2.281859,-0.935391,-0.372184,-0.544936,-0.223383,-0.088882
-2.304678,-0.944745,-0.375906,-0.555889,-0.227873,-0.090669
-2.327725,-0.954193,-0.379665,-0.567062,-0.232453,-0.092491
-2.351002,-0.963735,-0.383462,-0.578460,-0.237125,-0.094350
-2.374512,-0.973372,-0.387296,-0.590087,-0.241892,-0.096247
-2.398257,-0.983106,-0.391169,-0.601948,-0.246754,-0.098181
-2.422240,-0.992937,-0.395081,-0.614047,-0.251713,-0.100155
-2.446462,-1.002866,-0.399032,-0.626390,-0.256773,-0.102168
-2.446462,-1.002866,-0.399032,0.626390,0.256773,0.102168
-2.422240,-0.992937,-0.395081,0.614047,0.251713,0.100155
-2.398257,-0.983106,-0.391169,0.601948,0.246754,0.098181
-2.374512,-0.973372,-0.387296,0.590087,0.241892,0.096247
-2.351002,-0.963735,-0.383462,0.578460,0.237125,0.094350
-2.327725,-0.954193,-0.379665,0.567062,0.232453,0.092491
-2.304678,-0.944745,-0.375906,0.555889,0.227873,0.090669
-2.281859,-0.935391,-0.372184,0.544936,0.223383,0.088882
-2.259267,-0.926130,-0.368499,0.534198,0.218981,0.087131
-2.236898,-0.916960,-0.364851,0.523673,0.214667,0.085414
-2.193039,-0.898982,-0.357697,1.509618,0.618830,0.246227
-2.139026,-0.876840,-0.348887,0.957606,0.392547,0.156191
-2.096879,-0.859563,-0.342013,0.920240,0.377230,0.150096
-2.055562,-0.842626,-0.335274,0.884333,0.362510,0.144240
-2.015059,-0.826023,-0.328667,0.849827,0.348365,0.138611
-1.975355,-0.809747,-0.322191,0.816667,0.334772,0.133203
-1.936432,-0.793792,-0.315843,0.784801,0.321709,0.128005
-1.898277,-0.778151,-0.309620,0.754178,0.309156,0.123011
-1.851753,-0.759080,-0.302031,1.076317,0.441209,0.175553
-1.797293,-0.736755,-0.293149,1.013940,0.415639,0.165379
-1.744435,-0.715088,-0.284527,0.955177,0.391551,0.155795
-1.684875,-0.690672,-0.274812,1.187812,0.486914,0.193739
-1.619131,-0.663723,-0.264089,1.096925,0.449657,0.178915
-1.555953,-0.637824,-0.253785,1.012992,0.415251,0.165225
-1.487986,-0.609963,-0.242699,1.157687,0.474565,0.188825
-1.408933,-0.577557,-0.229805,1.245082,0.510390,0.203080
-1.327279,-0.544085,-0.216487,1.104947,0.452946,0.180223
-1.241481,-0.508914,-0.202493,1.204608,0.493799,0.196478
-1.141486,-0.467924,-0.186183,1.289193,0.528473,0.210275
-1.030978,-0.422624,-0.168158,1.226024,0.502578,0.199971
-0.900607,-0.369181,-0.146894,1.386389,0.568316,0.226128
-0.734484,-0.301083,-0.119798,1.405856,0.576296,0.229303
-0.454653,-0.186374,-0.074157,1.487742,0.609863,0.242659
0.000000,0.000000,0.000000,1.502772,0.616024,0.245111
0.000000,0.000000,0.000000,0.704372,0.000000,0.000000
0.194275,0.413407,-0.156641,0.682952,1.453283,-0.550654
0.314748,0.669766,-0.253777,0.678966,1.444800,-0.547440
0.386217,0.821848,-0.311401,0.617520,1.314046,-0.497897
0.443512,0.943768,-0.357597,0.636506,1.354448,-0.513205
0.497449,1.058542,-0.401085,0.709274,1.509295,-0.571877
0.544364,1.158376,-0.438913,0.579977,1.234157,-0.467626
0.581772,1.237977,-0.469074,0.537063,1.142840,-0.433026
0.614414,1.307437,-0.495393,0.499366,1.062621,-0.402631
0.643658,1.369666,-0.518971,0.478075,1.017317,-0.385465
0.673154,1.432433,-0.542754,0.556213,1.183588,-0.448466
0.707422,1.505352,-0.570383,0.704814,1.499804,-0.568281
0.738911,1.572359,-0.595772,0.501452,1.067060,-0.404313
0.763848,1.625425,-0.615879,0.495119,1.053585,-0.399207
0.787788,1.676368,-0.635182,0.492829,1.048711,-0.397360
0.807581,1.718485,-0.651140,0.345326,0.734834,-0.278431
0.803623,1.710063,-0.647949,-0.512840,-1.091293,0.413495
0.779988,1.659770,-0.628893,-0.483118,-1.028047,0.389531
0.757049,1.610956,-0.610397,-0.455119,-0.968467,0.366956
0.734784,1.563578,-0.592445,-0.428743,-0.912340,0.345689
0.709696,1.510193,-0.572217,-0.533164,-1.134542,0.429882
0.682004,1.451266,-0.549890,-0.492368,-1.047731,0.396989
0.653203,1.389978,-0.526668,-0.529189,-1.126083,0.426677
0.617447,1.313892,-0.497838,-0.673721,-1.433639,0.543211
0.592125,1.260008,-0.477421,-0.151167,-0.321674,0.121883
0.567570,1.207755,-0.457623,-0.596100,-1.268465,0.480626
0.526368,1.120080,-0.424402,-0.599706,-1.276139,0.483534
0.480261,1.021968,-0.387227,-0.628722,-1.337884,0.506929
0.428410,0.911631,-0.345420,-0.617403,-1.313797,0.497802
0.394807,0.840127,-0.318327,-0.134725,-0.286686,0.108626
0.373294,0.794349,-0.300982,-0.299488,-0.637293,0.241473
0.316119,0.672682,-0.254882,-0.695347,-1.479659,0.560648
0.193806,0.412408,-0.156263,-0.685743,-1.459222,0.552904
0.000000,0.000000,0.000000,-0.686437,-1.460697,0.553463
0.000000,0.000000,0.000000,1.467406,0.000000,0.000000
0.500716,0.004720,0.144944,1.496228,0.014104,0.433119
0.817955,0.007710,0.236777,1.498607,0.014126,0.433808
1.001415,0.009439,0.289883,1.302563,0.012278,0.377058
1.145051,0.010793,0.331463,1.341647,0.012646,0.388372
1.269865,0.011970,0.367593,1.245362,0.011739,0.360500
1.381650,0.013024,0.399952,1.311195,0.012359,0.379557
1.480803,0.013958,0.428654,1.130649,0.010658,0.327294
1.579996,0.014893,0.457368,1.501088,0.014149,0.434526
1.676700,0.015805,0.485361,1.208427,0.011391,0.349808
1.753287,0.016527,0.507531,1.057390,0.009967,0.306087
1.833782,0.017285,0.530832,1.445457,0.013625,0.418422
1.907863,0.017984,0.552277,0.939258,0.008854,0.271891
1.965673,0.018529,0.569011,0.997041,0.009398,0.288617
2.025235,0.019090,0.586253,1.058379,0.009976,0.306373
2.076117,0.019570,0.600982,0.741609,0.006990,0.214676
2.117847,0.019963,0.613062,0.771721,0.007274,0.223393
2.160416,0.020364,0.625384,0.803056,0.007570,0.232464
2.203841,0.020774,0.637954,0.835663,0.007877,0.241903
2.248138,0.021191,0.650777,0.869594,0.008197,0.251725
2.293325,0.021617,0.663858,0.904903,0.008530,0.261946
2.339421,0.022052,0.677201,0.941646,0.008876,0.272582
2.398494,0.022608,0.694302,1.484458,0.013993,0.429712
2.422240,0.022832,0.701175,-0.504799,-0.004758,-0.146126
2.386444,0.022495,0.690813,-0.979881,-0.009236,-0.283650
2.339421,0.022052,0.677201,-0.941646,-0.008876,-0.272582
2.293325,0.021617,0.663858,-0.904903,-0.008530,-0.261946
2.248138,0.021191,0.650777,-0.869594,-0.008197,-0.251725
2.203841,0.020774,0.637954,-0.835663,-0.007877,-0.241903
2.160416,0.020364,0.625384,-0.803056,-0.007570,-0.232464
2.117847,0.019963,0.613062,-0.771721,-0.007274,-0.223393
2.076117,0.019570,0.600982,-0.741609,-0.006990,-0.214676
2.025235,0.019090,0.586253,-1.058379,-0.009976,-0.306373
1.965673,0.018529,0.569011,-0.997041,-0.009398,-0.288617
1.907863,0.017984,0.552277,-0.939258,-0.008854,-0.271891
1.833782,0.017285,0.530832,-1.445457,-0.013625,-0.418422
1.753287,0.016527,0.507531,-1.057390,-0.009967,-0.306087
1.676700,0.015805,0.485361,-1.208427,-0.011391,-0.349808
1.595322,0.015038,0.461804,-1.093973,-0.010312,-0.316677
1.510567,0.014239,0.437270,-1.176558,-0.011090,-0.340583
1.416188,0.013349,0.409949,-1.205968,-0.011368,-0.349096
1.302156,0.012274,0.376940,-1.454092,-0.013706,-0.420922
1.162352,0.010956,0.336471,-1.502784,-0.014165,-0.435017
1.000319,0.009429,0.289566,-1.492983,-0.014073,-0.432180
0.811973,0.007654,0.235045,-1.401477,-0.013210,-0.405691
0.501777,0.004730,0.145251,-1.498191,-0.014122,-0.433687
0.000000,0.000000,0.000000,-1.484326,-0.013991,-0.429674
0.000000,0.000000,0.000000,-1.507483,0.000000,0.000000
-0.464902,-0.190574,-0.038266,-1.486110,-0.609192,-0.122323
-0.750051,-0.307464,-0.061737,-1.395788,-0.572167,-0.114888
-0.919643,-0.376984,-0.075696,-1.390269,-0.569904,-0.114434
-1.056338,-0.433018,-0.086948,-1.293465,-0.530222,-0.106466
-1.168949,-0.479180,-0.096217,-1.210352,-0.496152,-0.099625
-1.267028,-0.519385,-0.104290,-1.184556,-0.485578,-0.097501
-1.367970,-0.560764,-0.112598,-1.495602,-0.613083,-0.123104
-1.458667,-0.597942,-0.120064,-1.064176,-0.436231,-0.087593
-1.533073,-0.628443,-0.126188,-1.175513,-0.481871,-0.096757
-1.603100,-0.657149,-0.131952,-1.028589,-0.421643,-0.084664
-1.668193,-0.683832,-0.137310,-1.113815,-0.456579,-0.091679
-1.727163,-0.708006,-0.142164,-0.895672,-0.367157,-0.073723
-1.779498,-0.729459,-0.146471,-0.950774,-0.389745,-0.078259
-1.833419,-0.751562,-0.150910,-1.009265,-0.413722,-0.083073
-1.888973,-0.774335,-0.155482,-1.071356,-0.439174,-0.088184
-1.936432,-0.793790,-0.159389,-0.750701,-0.307730,-0.061791
-1.975355,-0.809745,-0.162593,-0.781183,-0.320226,-0.064300
-2.015059,-0.826021,-0.165861,-0.812902,-0.333228,-0.066910
-2.055562,-0.842624,-0.169194,-0.845909,-0.346758,-0.069627
-2.096879,-0.859561,-0.172595,-0.880256,-0.360838,-0.072454
-2.139026,-0.876838,-0.176064,-0.915998,-0.375490,-0.075396
-2.182020,-0.894462,-0.179603,-0.953191,-0.390736,-0.078458
-2.214750,-0.907879,-0.182297,-0.491049,-0.201293,-0.040419
-2.236898,-0.916958,-0.184120,-0.500919,-0.205339,-0.041231
-2.259267,-0.926128,-0.185962,-0.510988,-0.209466,-0.042060
-2.281859,-0.935389,-0.187821,-0.521259,-0.213676,-0.042905
-2.304678,-0.944743,-0.189699,-0.531736,-0.217971,-0.043767
-2.327725,-0.954190,-0.191596,-0.542424,-0.222353,-0.044647
-2.351002,-0.963732,-0.193512,-0.553327,-0.226822,-0.045545
-2.374512,-0.973369,-0.195447,-0.564448,-0.231381,-0.046460
-2.398257,-0.983103,-0.197402,-0.575794,-0.236032,-0.047394
-2.422240,-0.992934,-0.199376,-0.587367,-0.240776,-0.048347
-2.458755,-1.007903,-0.202382,-1.210300,-0.496131,-0.099620
-2.470927,-1.012892,-0.203383,0.611217,0.250552,0.050310
-2.446462,-1.002863,-0.201370,0.599173,0.245616,0.049318
-2.422240,-0.992934,-0.199376,0.587367,0.240776,0.048347
-2.398257,-0.983103,-0.197402,0.575794,0.236032,0.047394
-2.374512,-0.973369,-0.195447,0.564448,0.231381,0.046460
-2.351002,-0.963732,-0.193512,0.553327,0.226822,0.045545
-2.327725,-0.954190,-0.191596,0.542424,0.222353,0.044647
-2.304678,-0.944743,-0.189699,0.531736,0.217971,0.043767
-2.281859,-0.935389,-0.187821,0.521259,0.213676,0.042905
-2.237119,-0.917049,-0.184139,1.502659,0.615976,0.123685
-2.182020,-0.894462,-0.179603,0.953191,0.390736,0.078458
-2.139026,-0.876838,-0.176064,0.915998,0.375490,0.075396
-2.096879,-0.859561,-0.172595,0.880256,0.360838,0.072454
-2.055562,-0.842624,-0.169194,0.845909,0.346758,0.069627
-2.015059,-0.826021,-0.165861,0.812902,0.333228,0.066910
-1.975355,-0.809745,-0.162593,0.781183,0.320226,0.064300
-1.936432,-0.793790,-0.159389,0.750701,0.307730,0.061791
-1.888973,-0.774335,-0.155482,1.071356,0.439174,0.088184
-1.833419,-0.751562,-0.150910,1.009265,0.413722,0.083073
-1.779498,-0.729459,-0.146471,0.950774,0.389745,0.078259
-1.727163,-0.708006,-0.142164,0.895672,0.367157,0.073723
-1.668193,-0.683832,-0.137310,1.113815,0.456579,0.091679
-1.603100,-0.657149,-0.131952,1.028589,0.421643,0.084664
-1.533073,-0.628443,-0.126188,1.175513,0.481871,0.096757
-1.451625,-0.595056,-0.119484,1.264253,0.518248,0.104061
-1.367496,-0.560570,-0.112559,1.121961,0.459919,0.092349
-1.275512,-0.522863,-0.104988,1.311383,0.537567,0.107941
-1.171653,-0.480289,-0.096439,1.239580,0.508134,0.102031
-1.061106,-0.434973,-0.087340,1.231848,0.504964,0.101394
-0.928563,-0.380640,-0.076431,1.386348,0.568297,0.114111
-0.754451,-0.309267,-0.062099,1.483325,0.608050,0.122093
-0.463068,-0.189823,-0.038115,1.481277,0.607211,0.121925
0.000000,0.000000,0.000000,1.479111,0.606323,0.121747
0.000000,0.000000,0.000000,0.704251,0.000000,0.000000
0.194242,0.413403,-0.156656,0.682842,1.453279,-0.550712
0.314696,0.669761,-0.253802,0.678863,1.444811,-0.547503
0.386153,0.821842,-0.311432,0.617422,1.314048,-0.497951
0.443438,0.943762,-0.357633,0.636403,1.354445,-0.513259
0.497367,1.058537,-0.401126,0.709191,1.509359,-0.571963
0.544277,1.158374,-0.438959,0.579913,1.234218,-0.467699
0.581679,1.237977,-0.469124,0.536985,1.142856,-0.433079
0.614316,1.307437,-0.495446,0.499293,1.062637,-0.402680
0.643554,1.369663,-0.519026,0.477964,1.017241,-0.385477
0.673045,1.432430,-0.542811,0.556174,1.183696,-0.448555
0.707307,1.505350,-0.570443,0.704658,1.499712,-0.568307
0.738790,1.572353,-0.595834,0.501374,1.067066,-0.404358
0.763725,1.625422,-0.615944,0.495105,1.053724,-0.399302
0.787662,1.676368,-0.635250,0.492757,1.048726,-0.397409
0.807452,1.718485,-0.651210,0.345276,0.734845,-0.278465
0.803494,1.710063,-0.648018,-0.512765,-1.091309,0.413545
0.779864,1.659770,-0.628960,-0.483048,-1.028062,0.389578
0.756928,1.610956,-0.610462,-0.455053,-0.968481,0.367000
0.734667,1.563578,-0.592509,-0.428681,-0.912353,0.345731
0.709583,1.510193,-0.572279,-0.533087,-1.134559,0.429934
0.681895,1.451266,-0.549949,-0.492297,-1.047746,0.397037
0.653097,1.389975,-0.526723,-0.529165,-1.126213,0.426772
0.617346,1.313886,-0.497889,-0.673614,-1.433641,0.543270
0.592029,1.260005,-0.477471,-0.151100,-0.321584,0.121862
0.567479,1.207755,-0.457672,-0.596013,-1.268484,0.480684
0.526283,1.120079,-0.424447,-0.599635,-1.276192,0.483605
0.480183,1.021965,-0.387268,-0.628638,-1.337918,0.506996
0.428339,0.911626,-0.345455,-0.617320,-1.313831,0.497868
0.394741,0.840121,-0.318359,-0.134711,-0.286704,0.108645
0.373232,0.794344,-0.301012,-0.299420,-0.637251,0.241483
0.316066,0.672678,-0.254907,-0.695251,-1.479690,0.560720
0.193773,0.412404,-0.156278,-0.685632,-1.459218,0.552962
0.000000,0.000000,0.000000,-0.686319,-1.460680,0.553516
0.000000,0.000000,0.000000,1.495861,0.000000,0.000000
0.477807,-0.072697,0.117741,1.486277,-0.226132,0.366249
0.772518,-0.117536,0.190364,1.407958,-0.214216,0.346949
0.950706,-0.144647,0.234273,1.448789,-0.220429,0.357011
1.095065,-0.166611,0.269846,1.319454,-0.200751,0.325140
1.223169,-0.186101,0.301414,1.495470,-0.227531,0.368514
1.334113,-0.202981,0.328753,1.176321,-0.178974,0.289869
1.423022,-0.216508,0.350662,1.147634,-0.174609,0.282800
1.502866,-0.228656,0.370337,1.067080,-0.162353,0.262950
1.579527,-0.240320,0.389227,1.178720,-0.179338,0.290460
1.651676,-0.251297,0.407006,1.031395,-0.156924,0.254157
1.718741,-0.261501,0.423533,1.116853,-0.169926,0.275215
1.779498,-0.270745,0.438504,0.898115,-0.136645,0.221314
1.833419,-0.278949,0.451792,0.953367,-0.145052,0.234929
1.888973,-0.287401,0.465481,1.012019,-0.153975,0.249382
1.946211,-0.296110,0.479586,1.074278,-0.163448,0.264724
2.005183,-0.305082,0.494118,1.140368,-0.173503,0.281010
2.015059,-0.306585,0.496551,-0.767880,0.116830,-0.189221
1.975355,-0.300544,0.486767,-0.737917,0.112272,-0.181838
1.926941,-0.293178,0.474837,-1.053111,0.160227,-0.259508
1.870270,-0.284556,0.460873,-0.992078,0.150942,-0.244468
1.815266,-0.276187,0.447318,-0.934582,0.142194,-0.230300
1.753287,-0.266757,0.432046,-1.162202,0.176825,-0.286390
1.684875,-0.256348,0.415187,-1.073274,0.163295,-0.264477
1.611275,-0.245150,0.397051,-1.226580,0.186620,-0.302254
1.533073,-0.233252,0.377780,-1.110407,0.168945,-0.273627
1.451625,-0.220860,0.357710,-1.194233,0.181699,-0.294283
1.360929,-0.207061,0.335360,-1.224085,0.186241,-0.301639
1.263305,-0.192208,0.311304,-1.204675,0.183288,-0.296856
1.152586,-0.175362,0.284021,-1.321183,0.201014,-0.325566
1.080954,-0.164464,0.266369,-0.229294,0.034886,-0.056503
0.995855,-0.151516,0.245399,-1.391885,0.211771,-0.342989
0.833512,-0.126816,0.205394,-1.384868,0.210703,-0.341260
0.748560,-0.113891,0.184460,0.049115,-0.007473,0.012103
0.688518,-0.050224,0.284286,-0.892536,0.902359,1.391300
0.682448,0.015252,0.418474,0.860853,0.019240,0.527871
0.815335,0.018222,0.499959,1.349527,0.030161,0.827523
0.952317,0.021284,0.583956,1.290698,0.028846,0.791449
1.068987,0.023891,0.655497,1.300817,0.029073,0.797654
1.174656,0.026253,0.720293,1.310392,0.029287,0.803525
1.269363,0.028370,0.778366,1.239436,0.027701,0.760016
1.353957,0.030260,0.830239,1.209210,0.027025,0.741481
1.429925,0.031958,0.876822,1.124334,0.025128,0.689435
1.495241,0.033418,0.916873,0.983807,0.021988,0.603265
1.555953,0.034775,0.954102,1.065322,0.023809,0.653249
1.619131,0.036187,0.992843,1.153591,0.025782,0.707376
1.676368,0.037466,1.027940,0.927658,0.020733,0.568835
1.727163,0.038601,1.059087,0.984727,0.022008,0.603829
1.779498,0.039771,1.091179,1.045308,0.023362,0.640977
1.815086,0.040566,1.113001,0.362608,0.008104,0.222349
1.797293,0.040169,1.102090,-1.066318,-0.023832,-0.653861
1.744435,0.038987,1.069678,-1.004520,-0.022450,-0.615966
1.693131,0.037841,1.038219,-0.946304,-0.021149,-0.580268
1.643337,0.036728,1.007685,-0.891461,-0.019924,-0.546639
1.587228,0.035474,0.973280,-1.108578,-0.024776,-0.679774
1.525295,0.034090,0.935303,-1.023753,-0.022880,-0.627760
1.459210,0.032613,0.894780,-1.152916,-0.025767,-0.706962
1.387605,0.031012,0.850872,-1.100414,-0.024594,-0.674768
1.313328,0.029352,0.805326,-1.114973,-0.024919,-0.683696
1.228759,0.027462,0.753468,-1.253090,-0.028006,-0.768388
1.124227,0.025126,0.689370,-1.447865,-0.032359,-0.887823
1.006566,0.022496,0.617221,-1.315712,-0.029405,-0.806788
0.877612,0.019614,0.538147,-1.344050,-0.030039,-0.824164
0.717434,0.016034,0.439926,-1.413781,-0.031597,-0.866923
0.441760,0.009873,0.270885,-1.491685,-0.033338,-0.914693
0.000000,0.000000,0.000000,-1.456685,-0.032556,-0.893232
0.000000,0.000000,0.000000,-1.470449,0.000000,0.000000
-0.467160,-0.132251,-0.098097,-1.503456,-0.425621,-0.315705
-0.755370,-0.213841,-0.158617,-1.373673,-0.388880,-0.288452
-0.919940,-0.260430,-0.193174,-1.313445,-0.371830,-0.275805
-1.056090,-0.298974,-0.221764,-1.346121,-0.381080,-0.282666
-1.172699,-0.331985,-0.246250,-1.225061,-0.346809,-0.257246
-1.282564,-0.363087,-0.269320,-1.465354,-0.414834,-0.307704
-1.381171,-0.391003,-0.290027,-1.134575,-0.321192,-0.238245
-1.473691,-0.417195,-0.309454,-1.506299,-0.426426,-0.316302
-1.563888,-0.442729,-0.328394,-1.212622,-0.343287,-0.254634
-1.635323,-0.462952,-0.343395,-1.061061,-0.300381,-0.222808
-1.710401,-0.484206,-0.359160,-1.450475,-0.410622,-0.304579
-1.779498,-0.503767,-0.373669,-0.942519,-0.266822,-0.197916
-1.833419,-0.519032,-0.384992,-1.000502,-0.283237,-0.210091
-1.888973,-0.534759,-0.396658,-1.062053,-0.300662,-0.223016
-1.936432,-0.548194,-0.406623,-0.744183,-0.210675,-0.156268
-1.975355,-0.559213,-0.414797,-0.774400,-0.219229,-0.162613
-2.015059,-0.570453,-0.423134,-0.805844,-0.228130,-0.169216
-2.055562,-0.581919,-0.431639,-0.838564,-0.237393,-0.176087
-2.096879,-0.593616,-0.440315,-0.872613,-0.247033,-0.183237
-2.139026,-0.605548,-0.449165,-0.908045,-0.257063,-0.190677
-2.182020,-0.617719,-0.458194,-0.944915,-0.267501,-0.198419
-2.237119,-0.633317,-0.469763,-1.489612,-0.421702,-0.312797
-2.281859,-0.645983,-0.479158,-0.516733,-0.146284,-0.108507
-2.304678,-0.652443,-0.483950,-0.527119,-0.149225,-0.110688
-2.327725,-0.658967,-0.488789,-0.537714,-0.152224,-0.112912
-2.351002,-0.665557,-0.493677,-0.548522,-0.155284,-0.115182
-2.374512,-0.672212,-0.498614,-0.559548,-0.158405,-0.117497
-2.398257,-0.678935,-0.503600,-0.570794,-0.161589,-0.119859
-2.422240,-0.685724,-0.508636,-0.582267,-0.164837,-0.122268
-2.446462,-0.692581,-0.513723,-0.593971,-0.168150,-0.124726
-2.470927,-0.699507,-0.518860,-0.605910,-0.171530,-0.127233
-2.495636,-0.706502,-0.524048,-0.618089,-0.174978,-0.129790
-2.520592,-0.713567,-0.529289,-0.630512,-0.178495,-0.132399
-2.545798,-0.720703,-0.534582,-0.643185,-0.182083,-0.135060
-2.571256,-0.727910,-0.539928,-0.656113,-0.185742,-0.137775
-2.596969,-0.735189,-0.545327,-0.669301,-0.189476,-0.140544
-2.622938,-0.742541,-0.550780,-0.682754,-0.193284,-0.143369
-2.610018,-0.738883,-0.548067,1.351955,0.382732,0.283892
-2.571256,-0.727910,-0.539928,0.656113,0.185742,0.137775
-2.545798,-0.720703,-0.534582,0.643185,0.182083,0.135060
-2.520592,-0.713567,-0.529289,0.630512,0.178495,0.132399
-2.495636,-0.706502,-0.524048,0.618089,0.174978,0.129790
-2.470927,-0.699507,-0.518860,0.605910,0.171530,0.127233
-2.446462,-0.692581,-0.513723,0.593971,0.168150,0.124726
-2.422240,-0.685724,-0.508636,0.582267,0.164837,0.122268
-2.398257,-0.678935,-0.503600,0.570794,0.161589,0.119859
-2.374512,-0.672212,-0.498614,0.559548,0.158405,0.117497
-2.351002,-0.665557,-0.493677,0.548522,0.155284,0.115182
-2.327725,-0.658967,-0.488789,0.537714,0.152224,0.112912
-2.304678,-0.652443,-0.483950,0.527119,0.149225,0.110688
-2.281859,-0.645983,-0.479158,0.516733,0.146284,0.108507
-2.259267,-0.639587,-0.474414,0.506551,0.143402,0.106369
-2.225879,-0.630135,-0.467403,0.983283,0.278362,0.206475
-2.182020,-0.617719,-0.458194,0.944915,0.267501,0.198419
-2.139026,-0.605548,-0.449165,0.908045,0.257063,0.190677
-2.096879,-0.593616,-0.440315,0.872613,0.247033,0.183237
-2.055562,-0.581919,-0.431639,0.838564,0.237393,0.176087
-2.015059,-0.570453,-0.423134,0.805844,0.228130,0.169216
-1.975355,-0.559213,-0.414797,0.774400,0.219229,0.162613
-1.936432,-0.548194,-0.406623,0.744183,0.210675,0.156268
-1.888973,-0.534759,-0.396658,1.062053,0.300662,0.223016
-1.833419,-0.519032,-0.384992,1.000502,0.283237,0.210091
-1.779498,-0.503767,-0.373669,0.942519,0.266822,0.197916
-1.727163,-0.488951,-0.362680,0.887895,0.251359,0.186445
-1.668193,-0.472257,-0.350297,1.104144,0.312578,0.231855
-1.603100,-0.453830,-0.336628,1.019658,0.288660,0.214114
-1.533073,-0.434005,-0.321924,1.165306,0.329892,0.244698
-1.451625,-0.410948,-0.304821,1.253276,0.354796,0.263170
-1.360929,-0.385272,-0.285776,1.284604,0.363665,0.269749
-1.263298,-0.357633,-0.265275,1.264407,0.357947,0.265508
-1.155598,-0.327144,-0.242659,1.320940,0.373952,0.277379
-1.035244,-0.293072,-0.217387,1.294313,0.366414,0.271788
-0.892830,-0.252756,-0.187482,1.404759,0.397680,0.294980
-0.736142,-0.208398,-0.154579,1.120933,0.317331,0.235380
-0.466242,-0.131991,-0.097904,1.486135,0.420717,0.312067
0.000000,0.000000,0.000000,1.492433,0.422500,0.313390
0.000000,0.000000,0.000000,0.704343,0.000000,0.000000
0.194269,0.413395,-0.156649,0.682943,1.453272,-0.550694
0.314740,0.669752,-0.253791,0.678977,1.444833,-0.547496
0.386208,0.821833,-0.311420,0.617519,1.314052,-0.497939
0.443501,0.943750,-0.357619,0.636498,1.354439,-0.513243
0.497439,1.058528,-0.401112,0.709357,1.509479,-0.571992
0.544359,1.158371,-0.438946,0.580056,1.234332,-0.467730
0.581768,1.237977,-0.469111,0.537082,1.142887,-0.433078
0.614410,1.307437,-0.495432,0.499384,1.062666,-0.402680
0.643650,1.369659,-0.519010,0.477970,1.017099,-0.385413
0.673147,1.432426,-0.542794,0.556355,1.183898,-0.448619
0.707414,1.505344,-0.570426,0.704686,1.499540,-0.568226
0.738898,1.572342,-0.595813,0.501456,1.067076,-0.404351
0.763840,1.625416,-0.615925,0.495304,1.053984,-0.399390
0.787783,1.676368,-0.635232,0.492846,1.048755,-0.397408
0.807576,1.718485,-0.651192,0.345339,0.734865,-0.278465
0.803618,1.710063,-0.648000,-0.512858,-1.091338,0.413545
0.779984,1.659770,-0.628943,-0.483135,-1.028090,0.389578
0.757044,1.610956,-0.610446,-0.455135,-0.968507,0.367000
0.734780,1.563578,-0.592493,-0.428758,-0.912378,0.345731
0.709692,1.510193,-0.572263,-0.533183,-1.134589,0.429934
0.682000,1.451266,-0.549934,-0.492386,-1.047774,0.397037
0.653195,1.389969,-0.526706,-0.529361,-1.126456,0.426852
0.617435,1.313874,-0.497871,-0.673720,-1.433646,0.543257
0.592117,1.259999,-0.477456,-0.151044,-0.321415,0.121795
0.567566,1.207755,-0.457659,-0.596121,-1.268518,0.480684
0.526363,1.120077,-0.424435,-0.599774,-1.276291,0.483630
0.480254,1.021959,-0.387255,-0.628764,-1.337982,0.507006
0.428400,0.911616,-0.345442,-0.617444,-1.313894,0.497879
0.394796,0.840108,-0.318345,-0.134747,-0.286736,0.108654
0.373285,0.794334,-0.301000,-0.299429,-0.637172,0.241446
0.316112,0.672671,-0.254898,-0.695385,-1.479748,0.560726
0.193799,0.412396,-0.156271,-0.685733,-1.459210,0.552944
0.000000,0.000000,0.000000,-0.686409,-1.460648,0.553489
0.000000,0.000000,0.000000,1.469891,0.000000,0.000000
0.430974,-0.257369,0.037693,1.463354,-0.873884,0.127983
0.700759,-0.418479,0.061288,1.451524,-0.866820,0.126949
0.862246,-0.514915,0.075411,1.374944,-0.821088,0.120251
0.955785,-0.570775,0.083592,0.520894,-0.311067,0.045557
0.918306,-0.548393,0.080314,-1.286287,0.768144,-0.112497
0.780321,-0.465991,0.068246,-1.364162,0.814649,-0.119308
0.591406,-0.353175,0.051724,-1.469735,0.877695,-0.128542
0.514832,-0.146304,0.118225,0.374143,1.472308,0.802999
0.628016,-0.007296,0.221970,0.878405,-0.010205,0.310469
0.800791,-0.009303,0.283037,1.374420,-0.015967,0.485784
0.971399,-0.011285,0.343337,1.333148,-0.015488,0.471196
1.113284,-0.012933,0.393486,1.348242,-0.015663,0.476531
1.236024,-0.014359,0.436868,1.270973,-0.014765,0.449221
1.343351,-0.015606,0.474802,1.252024,-0.014545,0.442523
1.437252,-0.016697,0.507992,1.126921,-0.013092,0.398306
1.533528,-0.017815,0.542020,1.496137,-0.017381,0.528804
1.627388,-0.018906,0.575194,1.204442,-0.013992,0.425706
1.701723,-0.019769,0.601468,1.053903,-0.012243,0.372498
1.770820,-0.020572,0.625890,1.141225,-0.013258,0.403362
1.833419,-0.021299,0.648015,0.917714,-0.010661,0.324363
1.888973,-0.021945,0.667651,0.974172,-0.011317,0.344318
1.946211,-0.022610,0.687881,1.034103,-0.012013,0.365500
2.015358,-0.023413,0.712321,1.478179,-0.017172,0.522457
2.076117,-0.024119,0.733796,0.784636,-0.009115,0.277327
2.117847,-0.024604,0.748545,0.816496,-0.009485,0.288587
2.160416,-0.025098,0.763591,0.849649,-0.009871,0.300305
2.203841,-0.025603,0.778939,0.884148,-0.010271,0.312499
2.248138,-0.026117,0.794596,0.920048,-0.010688,0.325188
2.293325,-0.026642,0.810567,0.957405,-0.011122,0.338391
2.351235,-0.027315,0.831035,1.509302,-0.017534,0.533457
2.398257,-0.027861,0.847655,0.523563,-0.006082,0.185051
2.422240,-0.028140,0.856132,0.534087,-0.006205,0.188771
2.446462,-0.028421,0.864693,0.544822,-0.006329,0.192565
2.434411,-0.028281,0.860434,-1.078828,0.012533,-0.381308
2.398257,-0.027861,0.847655,-0.523563,0.006082,-0.185051
2.374512,-0.027585,0.839262,-0.513247,0.005963,-0.181405
2.351002,-0.027312,0.830953,-0.503134,0.005845,-0.177831
2.327725,-0.027042,0.822726,-0.493220,0.005730,-0.174327
2.293325,-0.026642,0.810567,-0.957405,0.011122,-0.338391
2.248138,-0.026117,0.794596,-0.920048,0.010688,-0.325188
2.203841,-0.025603,0.778939,-0.884148,0.010271,-0.312499
2.160416,-0.025098,0.763591,-0.849649,0.009871,-0.300305
2.117847,-0.024604,0.748545,-0.816496,0.009485,-0.288587
2.076117,-0.024119,0.733796,-0.784636,0.009115,-0.277327
2.015358,-0.023413,0.712321,-1.478179,0.017172,-0.522457
1.946211,-0.022610,0.687881,-1.034103,0.012013,-0.365500
1.888973,-0.021945,0.667651,-0.974172,0.011317,-0.344318
1.833419,-0.021299,0.648015,-0.917714,0.010661,-0.324363
1.770820,-0.020572,0.625890,-1.141225,0.013258,-0.403362
1.701723,-0.019769,0.601468,-1.053903,0.012243,-0.372498
1.627388,-0.018906,0.575194,-1.204442,0.013992,-0.425706
1.533528,-0.017815,0.542020,-1.496137,0.017381,-0.528804
1.437252,-0.016697,0.507992,-1.126921,0.013092,-0.398306
1.341016,-0.015579,0.473977,-1.306871,0.015182,-0.461909
1.232519,-0.014318,0.435629,-1.241255,0.014420,-0.438717
1.109897,-0.012894,0.392289,-1.365125,0.015859,-0.482499
0.964160,-0.011201,0.340779,-1.371642,0.015935,-0.484802
0.788768,-0.009163,0.278787,-1.380483,0.016037,-0.487927
0.486573,-0.005653,0.171977,-1.501421,0.017442,-0.530672
0.000000,0.000000,0.000000,-1.449954,0.016844,-0.512481
0.000000,0.000000,0.000000,-1.486681,0.000000,0.000000
-0.476333,-0.134850,-0.066881,-1.493889,-0.422919,-0.209755
-0.769433,-0.217826,-0.108035,-1.383685,-0.391721,-0.194281
-0.940719,-0.266317,-0.132085,-1.360339,-0.385111,-0.191003
-1.079714,-0.305666,-0.151601,-1.299461,-0.367877,-0.182455
-1.196271,-0.338664,-0.167967,-1.224483,-0.346651,-0.171928
-1.308343,-0.370392,-0.183703,-1.464662,-0.414645,-0.205651
-1.408933,-0.398868,-0.197826,-1.134039,-0.321046,-0.159229
-1.503312,-0.425587,-0.211078,-1.505587,-0.426231,-0.211397
-1.595322,-0.451635,-0.223997,-1.212049,-0.343131,-0.170182
-1.668193,-0.472265,-0.234228,-1.060559,-0.300244,-0.148912
-1.744780,-0.493947,-0.244982,-1.449790,-0.410435,-0.203563
-1.815266,-0.513901,-0.254879,-0.942073,-0.266701,-0.132275
-1.870270,-0.529473,-0.262602,-1.000030,-0.283108,-0.140413
-1.926941,-0.545516,-0.270559,-1.061552,-0.300525,-0.149051
-1.975355,-0.559222,-0.277357,-0.743832,-0.210578,-0.104440
-2.015059,-0.570462,-0.282931,-0.774034,-0.219129,-0.108681
-2.055562,-0.581929,-0.288618,-0.805463,-0.228026,-0.113094
-2.096879,-0.593626,-0.294420,-0.838168,-0.237285,-0.117686
-2.139026,-0.605557,-0.300337,-0.872201,-0.246920,-0.122464
-2.182020,-0.617729,-0.306374,-0.907616,-0.256946,-0.127437
-2.225879,-0.630145,-0.312532,-0.944469,-0.267379,-0.132611
-2.282085,-0.646057,-0.320424,-1.488908,-0.421509,-0.209055
-2.327725,-0.658978,-0.326832,-0.516489,-0.146218,-0.072519
-2.351002,-0.665568,-0.330101,-0.526870,-0.149157,-0.073977
-2.374512,-0.672223,-0.333402,-0.537460,-0.152155,-0.075464
-2.398257,-0.678946,-0.336736,-0.548263,-0.155213,-0.076981
-2.422240,-0.685735,-0.340103,-0.559283,-0.158333,-0.078528
-2.446462,-0.692592,-0.343504,-0.570525,-0.161515,-0.080107
-2.470927,-0.699518,-0.346939,-0.581992,-0.164762,-0.081717
-2.495636,-0.706514,-0.350408,-0.593690,-0.168073,-0.083359
-2.520592,-0.713579,-0.353913,-0.605623,-0.171452,-0.085035
-2.545798,-0.720714,-0.357452,-0.617797,-0.174898,-0.086744
-2.571256,-0.727922,-0.361026,-0.630214,-0.178413,-0.088487
-2.596969,-0.735201,-0.364636,-0.642882,-0.182000,-0.090266
-2.622938,-0.742553,-0.368283,-0.655803,-0.185658,-0.092080
-2.622938,-0.742553,-0.368283,0.655803,0.185658,0.092080
-2.596969,-0.735201,-0.364636,0.642882,0.182000,0.090266
-2.571256,-0.727922,-0.361026,0.630214,0.178413,0.088487
-2.545798,-0.720714,-0.357452,0.617797,0.174898,0.086744
-2.520592,-0.713579,-0.353913,0.605623,0.171452,0.085035
-2.495636,-0.706514,-0.350408,0.593690,0.168073,0.083359
-2.470927,-0.699518,-0.346939,0.581992,0.164762,0.081717
-2.446462,-0.692592,-0.343504,0.570525,0.161515,0.080107
-2.422240,-0.685735,-0.340103,0.559283,0.158333,0.078528
-2.398257,-0.678946,-0.336736,0.548263,0.155213,0.076981
-2.374512,-0.672223,-0.333402,0.537460,0.152155,0.075464
-2.351002,-0.665568,-0.330101,0.526870,0.149157,0.073977
-2.327725,-0.658978,-0.326832,0.516489,0.146218,0.072519
-2.304678,-0.652453,-0.323596,0.506312,0.143337,0.071090
-2.270619,-0.642811,-0.318814,0.982818,0.278235,0.137996
-2.225879,-0.630145,-0.312532,0.944469,0.267379,0.132611
-2.182020,-0.617729,-0.306374,0.907616,0.256946,0.127437
-2.139026,-0.605557,-0.300337,0.872201,0.246920,0.122464
-2.096879,-0.593626,-0.294420,0.838168,0.237285,0.117686
-2.055562,-0.581929,-0.288618,0.805463,0.228026,0.113094
-2.015059,-0.570462,-0.282931,0.774034,0.219129,0.108681
-1.975355,-0.559222,-0.277357,0.743832,0.210578,0.104440
-1.926941,-0.545516,-0.270559,1.061552,0.300525,0.149051
-1.870270,-0.529473,-0.262602,1.000030,0.283108,0.140413
-1.815266,-0.513901,-0.254879,0.942073,0.266701,0.132275
-1.744780,-0.493947,-0.244982,1.449790,0.410435,0.203563
-1.668193,-0.472265,-0.234228,1.060559,0.300244,0.148912
-1.595322,-0.451635,-0.223997,1.212049,0.343131,0.170182
-1.517894,-0.429715,-0.213125,1.097253,0.310632,0.154064
-1.437252,-0.406886,-0.201802,1.180085,0.334082,0.165694
-1.347454,-0.381464,-0.189194,1.209583,0.342432,0.169836
-1.250790,-0.354098,-0.175621,1.190566,0.337049,0.167166
-1.138773,-0.322386,-0.159893,1.354397,0.383429,0.190169
-1.006748,-0.285010,-0.141356,1.339300,0.379155,0.188049
-0.852226,-0.241265,-0.119660,1.370298,0.387931,0.192401
-0.717475,-0.203117,-0.100740,0.683938,0.193622,0.096031
-0.473174,-0.133955,-0.066438,1.464563,0.414617,0.205637
0.000000,0.000000,0.000000,1.490040,0.421830,0.209214
0.000000,0.000000,0.000000,0.704277,0.000000,0.000000
0.194250,0.413398,-0.156648,0.682875,1.453275,-0.550688
0.314709,0.669755,-0.253790,0.678904,1.444825,-0.547486
0.386170,0.821836,-0.311418,0.617455,1.314050,-0.497932
0.443458,0.943755,-0.357616,0.636434,1.354441,-0.513237
0.497390,1.058531,-0.401108,0.709263,1.509433,-0.571968
0.544304,1.158372,-0.438941,0.579976,1.234289,-0.467708
0.581709,1.237977,-0.469105,0.537022,1.142875,-0.433069
0.614347,1.307437,-0.495426,0.499327,1.062655,-0.402671
0.643585,1.369660,-0.519004,0.477947,1.017153,-0.385429
0.673079,1.432427,-0.542788,0.556262,1.183821,-0.448584
0.707342,1.505346,-0.570419,0.704644,1.499605,-0.568244
0.738825,1.572346,-0.595807,0.501403,1.067072,-0.404345
0.763763,1.625419,-0.615918,0.495207,1.053885,-0.399348
0.787703,1.676368,-0.635224,0.492791,1.048744,-0.397399
0.807493,1.718485,-0.651184,0.345300,0.734857,-0.278459
0.803536,1.710063,-0.647992,-0.512800,-1.091327,0.413535
0.779904,1.659770,-0.628935,-0.483081,-1.028079,0.389569
0.756967,1.610956,-0.610438,-0.455084,-0.968497,0.366992
0.734705,1.563578,-0.592485,-0.428710,-0.912368,0.345723
0.709620,1.510193,-0.572256,-0.533123,-1.134578,0.429924
0.681931,1.451266,-0.549927,-0.492330,-1.047763,0.397028
0.653129,1.389971,-0.526700,-0.529263,-1.126364,0.426812
0.617374,1.313878,-0.497867,-0.673650,-1.433644,0.543249
0.592058,1.260001,-0.477451,-0.151059,-0.321479,0.121818
0.567508,1.207755,-0.457653,-0.596054,-1.268505,0.480673
0.526310,1.120078,-0.424430,-0.599695,-1.276254,0.483610
0.480206,1.021961,-0.387251,-0.628688,-1.337957,0.506991
0.428358,0.911620,-0.345439,-0.617370,-1.313870,0.497863
0.394758,0.840113,-0.318343,-0.134728,-0.286724,0.108648
0.373249,0.794338,-0.300998,-0.299413,-0.637202,0.241454
0.316081,0.672674,-0.254896,-0.695304,-1.479726,0.560711
0.193781,0.412399,-0.156270,-0.685665,-1.459213,0.552938
0.000000,0.000000,0.000000,-0.686345,-1.460660,0.553486
0.000000,0.000000,0.000000,1.464094,0.000000,0.000000
0.407984,-0.105449,0.238541,1.471077,-0.380221,0.860113
0.664207,-0.171674,0.388350,1.457972,-0.376834,0.852451
0.815442,-0.210763,0.476775,1.342374,-0.346956,0.784863
0.933684,-0.241324,0.545909,1.288505,-0.333032,0.753367
1.037399,-0.268131,0.606549,1.327816,-0.343193,0.776351
1.138497,-0.294261,0.665660,1.496729,-0.386851,0.875112
1.226006,-0.316879,0.716825,1.143351,-0.295515,0.668498
1.294492,-0.334580,0.756867,1.071239,-0.276877,0.626335
1.360525,-0.351647,0.795475,1.183314,-0.305844,0.691863
1.360525,-0.351647,0.795475,-1.183314,0.305844,-0.691863
1.294492,-0.334580,0.756867,-1.071239,0.276877,-0.626335
1.225719,-0.316805,0.716657,-1.152108,0.297779,-0.673617
1.149138,-0.297011,0.671881,-1.180906,0.305222,-0.690455
1.061852,-0.274451,0.620847,-1.288723,0.333089,-0.753494
0.961439,-0.248498,0.562137,-1.309843,0.338548,-0.765843
0.838140,-0.216629,0.490046,-1.501963,0.388204,-0.878172
0.723372,-0.186966,0.422943,-0.826658,0.213662,-0.483333
0.578999,-0.149650,0.338531,-1.441658,0.372617,-0.842913
0.516464,-0.067566,0.178273,0.376838,0.569722,-1.031451
0.697007,-0.014185,0.096110,1.483017,-0.030181,0.204492
0.937323,-0.019076,0.129247,1.394550,-0.028381,0.192294
1.111738,-0.022625,0.153297,1.327570,-0.027018,0.183058
1.257914,-0.025600,0.173453,1.337126,-0.027212,0.184376
1.396088,-0.028412,0.192506,1.498317,-0.030493,0.206602
1.518345,-0.030900,0.209364,1.242646,-0.025290,0.171348
1.619532,-0.032960,0.223316,1.212342,-0.024673,0.167169
1.710401,-0.034809,0.235846,1.127245,-0.022941,0.155435
1.806861,-0.036772,0.249147,1.509021,-0.030711,0.208078
1.898559,-0.038638,0.261791,1.111449,-0.022620,0.153257
1.965673,-0.040004,0.271046,0.893769,-0.018189,0.123241
2.025235,-0.041216,0.279259,0.948754,-0.019308,0.130823
2.086601,-0.042465,0.287720,1.007122,-0.020496,0.138872
2.149827,-0.043752,0.296439,1.069080,-0.021757,0.147415
2.203841,-0.044851,0.303886,0.749107,-0.015245,0.103294
2.248138,-0.045753,0.309995,0.779524,-0.015864,0.107488
2.293325,-0.046672,0.316225,0.811175,-0.016509,0.111853
2.339421,-0.047610,0.322582,0.844112,-0.017179,0.116394
2.339421,-0.047610,0.322582,-0.844112,0.017179,-0.116394
2.293325,-0.046672,0.316225,-0.811175,0.016509,-0.111853
2.248138,-0.045753,0.309995,-0.779524,0.015864,-0.107488
2.203841,-0.044851,0.303886,-0.749107,0.015245,-0.103294
2.149827,-0.043752,0.296439,-1.069080,0.021757,-0.147415
2.086601,-0.042465,0.287720,-1.007122,0.020496,-0.138872
2.025235,-0.041216,0.279259,-0.948754,0.019308,-0.130823
1.965673,-0.040004,0.271046,-0.893769,0.018189,-0.123241
1.898559,-0.038638,0.261791,-1.111449,0.022620,-0.153257
1.824478,-0.037131,0.251576,-1.026404,0.020889,-0.141530
1.744780,-0.035509,0.240587,-1.173016,0.023873,-0.161747
1.652085,-0.033622,0.227805,-1.261568,0.025675,-0.173957
1.556338,-0.031674,0.214603,-1.119578,0.022785,-0.154378
1.445225,-0.029412,0.199281,-1.445985,0.029428,-0.199386
1.315178,-0.026766,0.181349,-1.329680,0.027061,-0.183349
1.173976,-0.023892,0.161879,-1.374206,0.027967,-0.189489
1.013197,-0.020620,0.139709,-1.325019,0.026966,-0.182706
0.815597,-0.016599,0.112462,-1.397094,0.028433,-0.192645
0.505929,-0.010296,0.069762,-1.310942,0.026679,-0.180765
0.000000,0.000000,0.000000,-1.479289,0.030106,-0.203978
0.000000,0.000000,0.000000,-1.476147,0.000000,0.000000
-0.485834,-0.137545,-0.034419,-1.462991,-0.414190,-0.103647
-0.789528,-0.223525,-0.055935,-1.452544,-0.411232,-0.102907
-0.972891,-0.275437,-0.068925,-1.400160,-0.396402,-0.099195
-1.126965,-0.319057,-0.079841,-1.505187,-0.426136,-0.106636
-1.257292,-0.355954,-0.089074,-1.278483,-0.361954,-0.090575
-1.360929,-0.385295,-0.096416,-1.166291,-0.330191,-0.082627
-1.451625,-0.410972,-0.102841,-1.137849,-0.322138,-0.080612
-1.533073,-0.434031,-0.108612,-1.057981,-0.299527,-0.074953
-1.611275,-0.456171,-0.114152,-1.168670,-0.330864,-0.082795
-1.684875,-0.477008,-0.119366,-1.022601,-0.289510,-0.072447
-1.753287,-0.496376,-0.124213,-1.107331,-0.313498,-0.078450
-1.815266,-0.513923,-0.128604,-0.890458,-0.252099,-0.063085
-1.870270,-0.529495,-0.132501,-0.945239,-0.267608,-0.066966
-1.926941,-0.545540,-0.136516,-1.003390,-0.284071,-0.071086
-1.985330,-0.562070,-0.140652,-1.065119,-0.301548,-0.075459
-2.035210,-0.576192,-0.144186,-0.746331,-0.211295,-0.052874
-2.076117,-0.587773,-0.147084,-0.776635,-0.219874,-0.055021
-2.117847,-0.599587,-0.150040,-0.808170,-0.228802,-0.057255
-2.160416,-0.611639,-0.153056,-0.840985,-0.238093,-0.059580
-2.203841,-0.623933,-0.156133,-0.875132,-0.247760,-0.061999
-2.248138,-0.636474,-0.159271,-0.910666,-0.257820,-0.064517
-2.293325,-0.649267,-0.162472,-0.947642,-0.268289,-0.067136
-2.339421,-0.662317,-0.165738,-0.986120,-0.279182,-0.069862
-2.374512,-0.672252,-0.168224,-0.508013,-0.143824,-0.035991
-2.398257,-0.678975,-0.169906,-0.518224,-0.146715,-0.036714
-2.422240,-0.685764,-0.171605,-0.528640,-0.149664,-0.037452
-2.446462,-0.692622,-0.173321,-0.539266,-0.152673,-0.038205
-2.470927,-0.699548,-0.175055,-0.550105,-0.155741,-0.038973
-2.495636,-0.706544,-0.176805,-0.561162,-0.158872,-0.039756
-2.520592,-0.713609,-0.178573,-0.572442,-0.162065,-0.040555
-2.545798,-0.720745,-0.180359,-0.583948,-0.165322,-0.041370
-2.571256,-0.727953,-0.182162,-0.595685,-0.168645,-0.042202
-2.596969,-0.735232,-0.183984,-0.607659,-0.172035,-0.043050
-2.622938,-0.742585,-0.185824,-0.619872,-0.175493,-0.043915
-2.622938,-0.742585,-0.185824,0.619872,0.175493,0.043915
-2.596969,-0.735232,-0.183984,0.607659,0.172035,0.043050
-2.571256,-0.727953,-0.182162,0.595685,0.168645,0.042202
-2.545798,-0.720745,-0.180359,0.583948,0.165322,0.041370
-2.520592,-0.713609,-0.178573,0.572442,0.162065,0.040555
-2.495636,-0.706544,-0.176805,0.561162,0.158872,0.039756
-2.470927,-0.699548,-0.175055,0.550105,0.155741,0.038973
-2.446462,-0.692622,-0.173321,0.539266,0.152673,0.038205
-2.422240,-0.685764,-0.171605,0.528640,0.149664,0.037452
-2.398257,-0.678975,-0.169906,0.518224,0.146715,0.036714
-2.374512,-0.672252,-0.168224,0.508013,0.143824,0.035991
-2.339421,-0.662317,-0.165738,0.986120,0.279182,0.069862
-2.293325,-0.649267,-0.162472,0.947642,0.268289,0.067136
-2.248138,-0.636474,-0.159271,0.910666,0.257820,0.064517
-2.203841,-0.623933,-0.156133,0.875132,0.247760,0.061999
-2.160416,-0.611639,-0.153056,0.840985,0.238093,0.059580
-2.117847,-0.599587,-0.150040,0.808170,0.228802,0.057255
-2.076117,-0.587773,-0.147084,0.776635,0.219874,0.055021
-2.035210,-0.576192,-0.144186,0.746331,0.211295,0.052874
-1.985330,-0.562070,-0.140652,1.065119,0.301548,0.075459
-1.926941,-0.545540,-0.136516,1.003390,0.284071,0.071086
-1.870270,-0.529495,-0.132501,0.945239,0.267608,0.066966
-1.797649,-0.508935,-0.127356,1.454661,0.411832,0.103057
-1.718741,-0.486596,-0.121765,1.064123,0.301266,0.075389
-1.643662,-0.465340,-0.116446,1.216122,0.344298,0.086157
-1.563888,-0.442755,-0.110795,1.100940,0.311689,0.077997
-1.480803,-0.419233,-0.104909,1.184050,0.335219,0.083885
-1.388283,-0.393039,-0.098354,1.213648,0.343598,0.085982
-1.288690,-0.364843,-0.091298,1.194566,0.338196,0.084630
-1.178825,-0.333739,-0.083515,1.247977,0.353317,0.088414
-1.048950,-0.296970,-0.074314,1.347763,0.381567,0.095483
-0.890583,-0.252134,-0.063094,1.391288,0.393890,0.098567
-0.745952,-0.211188,-0.052848,0.772686,0.218756,0.054741
-0.486695,-0.137789,-0.034480,1.472590,0.416907,0.104327
0.000000,0.000000,0.000000,1.470785,0.416397,0.104199
0.000000,0.000000,0.000000,0.704302,0.000000,0.000000
0.194255,0.413414,-0.156685,0.682874,1.453289,-0.550800
0.314714,0.669774,-0.253846,0.678876,1.444781,-0.547575
0.386175,0.821856,-0.311485,0.617444,1.314042,-0.498025
0.443464,0.943779,-0.357694,0.636433,1.354454,-0.513341
0.497393,1.058550,-0.401193,0.709140,1.509190,-0.571986
0.544300,1.158378,-0.439028,0.579860,1.234057,-0.467710
0.581702,1.237977,-0.469196,0.536986,1.142812,-0.433128
0.614341,1.307437,-0.495521,0.499294,1.062596,-0.402726
0.643583,1.369670,-0.519108,0.478077,1.017441,-0.385612
0.673076,1.432437,-0.542897,0.556063,1.183411,-0.448515
0.707340,1.505357,-0.570533,0.704801,1.499954,-0.568486
0.738827,1.572369,-0.595931,0.501388,1.067051,-0.404415
0.763760,1.625430,-0.616041,0.494953,1.053357,-0.399224
0.787694,1.676368,-0.635347,0.492758,1.048686,-0.397454
0.807484,1.718485,-0.651309,0.345277,0.734817,-0.278497
0.803527,1.710063,-0.648117,-0.512766,-1.091267,0.413592
0.779895,1.659770,-0.629056,-0.483049,-1.028023,0.389623
0.756959,1.610956,-0.610556,-0.455054,-0.968444,0.367042
0.734696,1.563578,-0.592599,-0.428681,-0.912318,0.345770
0.709612,1.510193,-0.572366,-0.533088,-1.134515,0.429983
0.681923,1.451266,-0.550033,-0.492298,-1.047706,0.397083
0.653128,1.389984,-0.526807,-0.529026,-1.125871,0.426707
0.617378,1.313903,-0.497972,-0.673639,-1.433636,0.543351
0.592057,1.260013,-0.477547,-0.151218,-0.321822,0.121971
0.567502,1.207755,-0.457742,-0.596014,-1.268435,0.480739
0.526306,1.120082,-0.424513,-0.599593,-1.276052,0.483626
0.480206,1.021974,-0.387330,-0.628620,-1.337828,0.507039
0.428362,0.911639,-0.345513,-0.617303,-1.313742,0.497911
0.394766,0.840139,-0.318414,-0.134695,-0.286658,0.108644
0.373254,0.794357,-0.301063,-0.299485,-0.637363,0.241562
0.316084,0.672689,-0.254950,-0.695240,-1.479608,0.560774
0.193786,0.412415,-0.156306,-0.685664,-1.459228,0.553050
0.000000,0.000000,0.000000,-0.686368,-1.460726,0.553618
0.000000,0.000000,0.000000,1.474141,0.000000,0.000000
0.409772,-0.092138,0.267108,1.468187,-0.330123,0.957032
0.662603,-0.148987,0.431915,1.388114,-0.312118,0.904836
0.818559,-0.184053,0.533574,1.502409,-0.337818,0.979339
0.947579,-0.213064,0.617676,1.361102,-0.306045,0.887229
1.051118,-0.236344,0.685167,1.258712,-0.283022,0.820486
1.149592,-0.258486,0.749357,1.505605,-0.338536,0.981423
1.237977,-0.278360,0.806970,1.165740,-0.262117,0.759883
1.307437,-0.293978,0.852248,1.083914,-0.243719,0.706545
1.374130,-0.308974,0.895721,1.197315,-0.269217,0.780465
1.436897,-0.323087,0.936635,1.047667,-0.235568,0.682917
1.495241,-0.336206,0.974667,1.134473,-0.255087,0.739502
1.548097,-0.348091,1.009121,0.912284,-0.205128,0.594669
1.595006,-0.358638,1.039698,0.968408,-0.217747,0.631253
1.643337,-0.369505,1.071202,1.027985,-0.231143,0.670088
1.659606,-0.373163,1.081807,-0.349572,0.078601,-0.227867
1.627066,-0.365847,1.060596,-1.007729,0.226588,-0.656884
1.579214,-0.355087,1.029404,-0.949327,0.213457,-0.618815
1.532770,-0.344644,0.999130,-0.894309,0.201086,-0.582951
1.480436,-0.332877,0.965016,-1.112119,0.250061,-0.724931
1.408933,-0.316799,0.918407,-1.509932,0.339509,-0.984243
1.333717,-0.299887,0.869378,-1.127925,0.253615,-0.735234
1.261679,-0.283689,0.822420,-1.249856,0.281031,-0.814714
1.182776,-0.265948,0.770988,-1.206632,0.271312,-0.786538
1.099022,-0.247116,0.716393,-1.223847,0.275183,-0.797760
1.007510,-0.226539,0.656741,-1.225655,0.275589,-0.798938
0.904001,-0.203265,0.589269,-1.280054,0.287821,-0.834398
0.777268,-0.174769,0.506659,-1.396448,0.313992,-0.910269
0.616311,-0.138578,0.401740,-1.384009,0.311195,-0.902161
0.563759,-0.056698,0.265533,0.446627,0.736537,-0.926753
0.714250,0.005892,0.223315,1.409421,0.011627,0.440664
0.912264,0.007526,0.285225,1.374189,0.011336,0.429648
1.066523,0.008798,0.333454,1.317991,0.010873,0.412077
1.198225,0.009885,0.374632,1.333422,0.011000,0.416902
1.313733,0.010837,0.410746,1.247613,0.010292,0.390074
1.416188,0.011683,0.442779,1.247929,0.010295,0.390172
1.510567,0.012461,0.472287,1.217496,0.010044,0.380657
1.595322,0.013160,0.498787,1.132038,0.009339,0.353938
1.668193,0.013762,0.521570,0.990548,0.008171,0.309701
1.735928,0.014320,0.542748,1.072622,0.008848,0.335361
1.806414,0.014902,0.564786,1.161495,0.009582,0.363148
1.870270,0.015429,0.584751,0.934014,0.007705,0.292025
1.926941,0.015896,0.602469,0.991475,0.008179,0.309990
1.985330,0.016378,0.620725,1.052471,0.008682,0.329061
2.035210,0.016789,0.636320,0.737469,0.006084,0.230574
2.055460,0.016956,0.642652,0.000000,0.000000,0.000000
2.025235,0.016707,0.633201,-1.095205,-0.009035,-0.342422
1.965673,0.016216,0.614579,-1.031733,-0.008511,-0.322577
1.907863,0.015739,0.596504,-0.971939,-0.008018,-0.303882
1.851753,0.015276,0.578961,-0.915610,-0.007553,-0.286271
1.788528,0.014754,0.559194,-1.138609,-0.009393,-0.355993
1.718741,0.014179,0.537374,-1.051487,-0.008674,-0.328753
1.643662,0.013559,0.513900,-1.201681,-0.009913,-0.375713
1.548864,0.012777,0.484261,-1.492708,-0.012314,-0.466704
1.451625,0.011975,0.453859,-1.124337,-0.009275,-0.351531
1.354426,0.011173,0.423469,-1.303875,-0.010756,-0.407664
1.244844,0.010269,0.389208,-1.238409,-0.010216,-0.387196
1.122222,0.009258,0.350869,-1.339148,-0.011047,-0.418692
0.980705,0.008090,0.306623,-1.301639,-0.010738,-0.406965
0.799257,0.006593,0.249892,-1.500965,-0.012382,-0.469285
0.489505,0.004038,0.153047,-1.472034,-0.012143,-0.460240
0.000000,0.000000,0.000000,-1.469954,-0.012126,-0.459590
0.000000,0.000000,0.000000,-1.479232,0.000000,0.000000
-0.455138,-0.138486,-0.102708,-1.457335,-0.443427,-0.328866
-0.739619,-0.225046,-0.166904,-1.457169,-0.443377,-0.328829
-0.909884,-0.276853,-0.205327,-1.357218,-0.412964,-0.306274
-1.045901,-0.318239,-0.236021,-1.354370,-0.412098,-0.305631
-1.161029,-0.353269,-0.262001,-1.241085,-0.377628,-0.280067
-1.263298,-0.384387,-0.285079,-1.305271,-0.397158,-0.294551
-1.353957,-0.411972,-0.305538,-1.125542,-0.342471,-0.253993
-1.444653,-0.439568,-0.326005,-1.494306,-0.454676,-0.337209
-1.533073,-0.466472,-0.345958,-1.202968,-0.366030,-0.271465
-1.603100,-0.487779,-0.361760,-1.052613,-0.320281,-0.237536
-1.668193,-0.507585,-0.376449,-1.139829,-0.346819,-0.257217
-1.727163,-0.525528,-0.389757,-0.916591,-0.278894,-0.206841
-1.779498,-0.541452,-0.401567,-0.972980,-0.296051,-0.219565
-1.833419,-0.557859,-0.413735,-1.032838,-0.314264,-0.233073
-1.888973,-0.574763,-0.426271,-1.096378,-0.333598,-0.247412
-1.936432,-0.589203,-0.436981,-0.768235,-0.233753,-0.173362
-1.975355,-0.601046,-0.445764,-0.799428,-0.243244,-0.180401
-2.015059,-0.613127,-0.454724,-0.831888,-0.253121,-0.187726
-2.055562,-0.625451,-0.463864,-0.865666,-0.263398,-0.195349
-2.096879,-0.638023,-0.473188,-0.900815,-0.274093,-0.203281
-2.139026,-0.650847,-0.482699,-0.937392,-0.285223,-0.211535
-2.182020,-0.663929,-0.492401,-0.975454,-0.296804,-0.220124
-2.214750,-0.673888,-0.499787,-0.502518,-0.152902,-0.113400
-2.236898,-0.680627,-0.504785,-0.512619,-0.155976,-0.115679
-2.259267,-0.687433,-0.509833,-0.522922,-0.159111,-0.118004
-2.281859,-0.694307,-0.514931,-0.533433,-0.162309,-0.120376
-2.304678,-0.701250,-0.520080,-0.544155,-0.165571,-0.122796
-2.327725,-0.708263,-0.525281,-0.555093,-0.168899,-0.125264
-2.351002,-0.715345,-0.530534,-0.566250,-0.172294,-0.127782
-2.374512,-0.722499,-0.535839,-0.577632,-0.175757,-0.130350
-2.398257,-0.729724,-0.541198,-0.589242,-0.179290,-0.132970
-2.422240,-0.737021,-0.546610,-0.601086,-0.182894,-0.135643
-2.446462,-0.744391,-0.552076,-0.613168,-0.186570,-0.138369
-2.470927,-0.751835,-0.557596,-0.625492,-0.190320,-0.141150
-2.495636,-0.759354,-0.563172,-0.638065,-0.194146,-0.143987
-2.520592,-0.766947,-0.568804,-0.650890,-0.198048,-0.146882
